trial,color1_target,color1_H,color1_L,color1_H_deltaE,color1_L_deltaE,color1_HL_deltaE,color2_target,color2_H,color2_L,color2_H_deltaE,color2_L_deltaE,color2_HL_deltaE,audio1_target,audio1_H,audio1_L,audio1_H_count,audio1_L_count,audio1_target_talker,audio1_H_talker,audio1_L_talker,audio1_target_file,audio1_H_file,audio1_L_file,audio2_target,audio2_H,audio2_L,audio2_H_count,audio2_L_count,audio2_target_talker,audio2_H_talker,audio2_L_talker,audio2_target_file,audio2_H_file,audio2_L_file,thisN,thisTrialN,thisRepN,Response,RT,practice.thisRepN,practice.thisTrialN,practice.thisN,practice.thisIndex,inner.thisRepN,inner.thisTrialN,inner.thisN,inner.thisIndex,block1.thisRepN,block1.thisTrialN,block1.thisN,block1.thisIndex,SFT1.thisRepN,SFT1.thisTrialN,SFT1.thisN,SFT1.thisIndex,block2.thisRepN,block2.thisTrialN,block2.thisN,block2.thisIndex,SFT_2.thisRepN,SFT_2.thisTrialN,SFT_2.thisN,SFT_2.thisIndex,block3.thisRepN,block3.thisTrialN,block3.thisN,block3.thisIndex,SFT_3.thisRepN,SFT_3.thisTrialN,SFT_3.thisN,SFT_3.thisIndex,block4.thisRepN,block4.thisTrialN,block4.thisN,block4.thisIndex,SFT_4.thisRepN,SFT_4.thisTrialN,SFT_4.thisN,SFT_4.thisIndex,block5.thisRepN,block5.thisTrialN,block5.thisN,block5.thisIndex,SFT_5.thisRepN,SFT_5.thisTrialN,SFT_5.thisN,SFT_5.thisIndex,thisRow.t,notes,piloting,studyintro.started,intro.started,confirm.started,studyintro.stopped,confirm.keys,confirm.rt,confirm.duration,practice_intro.started,prac_intro.started,key_resp_2.started,practice_intro.stopped,key_resp_2.keys,key_resp_2.rt,key_resp_2.duration,study_stage.started,Fix.started,Fix.stopped,stim1.started,stim2.started,stim1.stopped,stim2.stopped,audi1.started,audi1.stopped,audi2.started,audi2.stopped,study_stage.stopped,probe.started,Fixation.started,Fixation.stopped,targetV.started,targetA.started,targetA.stopped,targetV.stopped,probe.stopped,ResponseBox.duration,condition,TargetA,TargetC,Probe,inner.Response,feedback.started,answer.started,answer.stopped,feedback.stopped,Acc,col_type,aud_type,inner.RT,SFT_start.started,text.started,key_resp_3.started,SFT_start.stopped,key_resp_3.keys,key_resp_3.rt,key_resp_3.duration,SFT1.Response,SFT1.RT,rest.started,timeout.started,breakend.started,rest.stopped,breakend.keys,breakend.rt,breakend.duration,SFT_2.Response,SFT_2.RT,SFT_3.Response,SFT_3.RT,SFT_4.Response,SFT_4.RT,SFT_5.Response,SFT_5.RT,End.started,EndExp.started,callExp.started,End.stopped,callExp.keys,callExp.rt,callExp.duration,participant,session,date,expName,expVersion,psychopyVersion,frameRate,expStart,
,,,,,,,,,,,,,,,,,,,,,,,,,,,,,,,,,,,,,,,,,,,,,,,,,,,,,,,,,,,,,,,,,,,,,,,,,,,,,,,,,,,,,,,,,,False,0.018714100000011058,0.03558169999996608,0.03558169999996608,80.62118540000006,space,80.58176720000006,None,,,,,,,,,,,,,,,,,,,,,,,,,,,,,,,,,,,,,,,,,,,,,,,,,,,,,,,,,,,,,,,,,,,,,,,,,595945,001,2026-05-11_11h28.56.522,VAWM,,2026.1.3,60.01583217654687,2026-05-11 11h28.57.488074 -0500,
,,,,,,,,,,,,,,,,,,,,,,,,,,,,,,,,,,,,,,,,,,,,,,,,,,,,,,,,,,,,,,,,,,,,,,,,,,,,,,,,,,,,,,,,,,,,,,,,,,80.62122250000004,80.63532769999995,80.63532769999995,82.47053019999998,space,1.8219245000000228,None,,,,,,,,,,,,,,,,,,,,,,,,,,,,,,,,,,,,,,,,,,,,,,,,,,,,,,,,,,,,,,,,,,595945,001,2026-05-11_11h28.56.522,VAWM,,2026.1.3,60.01583217654687,2026-05-11 11h28.57.488074 -0500,
1,#008470,#002C21,#00BBBF,38.65,25.32,58.08,#C3704D,#FD852F,#874613,34.0,20.46,41.58,m,theta,b,1,5,T02,T02,T02,stimuli/T02_ama.wav,stimuli/T02_athetaa.wav,stimuli/T02_aba.wav,v,n,d,4,81,T03,T03,T03,stimuli/T03_ava.wav,stimuli/T03_ana.wav,stimuli/T03_ada.wav,0,0,0,None,,0,0,0,0,0,0,0,0,,,,,,,,,,,,,,,,,,,,,,,,,,,,,,,,,,,,,,,,,86.70699249999996,,,,,,,,,,,,,,,,,82.50066600000002,82.5203143,82.82049810000001,82.82049810000001,83.8047358,83.82133869999996,84.80543869999997,84.8054762666667,85.65642930000001,85.80632276666667,86.69020390000003,86.69025139999997,86.69956309999998,86.70699249999996,87.00727870000003,87.02396269999997,87.0239453666667,87.84126609999998,88.0248699,89.20904170000006,no_response,5,stimuli/T03_ada.wav,#C3704D,0,None,89.21025889999999,90.00949290000005,91.01049460000002,90.9940368,0,color2_target,audio2_L_file,,,,,,,,,,,,,,,,,,,,,,,,,,,,,,,,,595945,001,2026-05-11_11h28.56.522,VAWM,,2026.1.3,60.01583217654687,2026-05-11 11h28.57.488074 -0500,
1,#008470,#002C21,#00BBBF,38.65,25.32,58.08,#C3704D,#FD852F,#874613,34.0,20.46,41.58,m,theta,b,1,5,T02,T02,T02,stimuli/T02_ama.wav,stimuli/T02_athetaa.wav,stimuli/T02_aba.wav,v,n,d,4,81,T03,T03,T03,stimuli/T03_ava.wav,stimuli/T03_ana.wav,stimuli/T03_ada.wav,1,0,1,None,,0,0,0,0,1,0,1,0,,,,,,,,,,,,,,,,,,,,,,,,,,,,,,,,,,,,,,,,,91.01049460000002,,,,,,,,,,,,,,,,,,,,,,,,,,,,,91.00325840000005,91.01049460000002,91.31076670000004,91.32723969999995,91.32743336666671,92.17844319999995,92.32823670000005,93.51278079999997,no_response,9,stimuli/T03_ana.wav,#FD852F,1,None,93.51283690000002,94.31325979999997,95.3141008,95.29757010000003,0,color2_H,audio2_H_file,,,,,,,,,,,,,,,,,,,,,,,,,,,,,,,,,595945,001,2026-05-11_11h28.56.522,VAWM,,2026.1.3,60.01583217654687,2026-05-11 11h28.57.488074 -0500,
1,#008470,#002C21,#00BBBF,38.65,25.32,58.08,#C3704D,#FD852F,#874613,34.0,20.46,41.58,m,theta,b,1,5,T02,T02,T02,stimuli/T02_ama.wav,stimuli/T02_athetaa.wav,stimuli/T02_aba.wav,v,n,d,4,81,T03,T03,T03,stimuli/T03_ava.wav,stimuli/T03_ana.wav,stimuli/T03_ada.wav,2,0,2,3,1.466,0,0,0,0,2,0,2,0,,,,,,,,,,,,,,,,,,,,,,,,,,,,,,,,,,,,,,,,,95.3141008,,,,,,,,,,,,,,,,,,,,,,,,,,,,,95.29913260000001,95.3141008,95.61440389999996,95.63100169999996,95.63107056666662,96.51511010000002,96.63188400000001,97.28218349999997,no_response,7,stimuli/T03_ava.wav,#FD852F,2,3,97.28438389999997,97.29904920000001,,98.28338740000004,1,color2_H,audio2_target_file,1.466,,,,,,,,,,,,,,,,,,,,,,,,,,,,,,,,595945,001,2026-05-11_11h28.56.522,VAWM,,2026.1.3,60.01583217654687,2026-05-11 11h28.57.488074 -0500,
1,#008470,#002C21,#00BBBF,38.65,25.32,58.08,#C3704D,#FD852F,#874613,34.0,20.46,41.58,m,theta,b,1,5,T02,T02,T02,stimuli/T02_ama.wav,stimuli/T02_athetaa.wav,stimuli/T02_aba.wav,v,n,d,4,81,T03,T03,T03,stimuli/T03_ava.wav,stimuli/T03_ana.wav,stimuli/T03_ada.wav,3,0,3,None,,0,0,0,0,3,0,3,0,,,,,,,,,,,,,,,,,,,,,,,,,,,,,,,,,,,,,,,,,98.30001890000005,,,,,,,,,,,,,,,,,,,,,,,,,,,,,98.29335700000001,98.30001890000005,98.60031590000006,98.61705770000003,98.61698256666672,99.43420230000004,99.61776350000002,100.80197899999996,no_response,16,stimuli/T02_aba.wav,#00BBBF,3,None,100.80310759999998,101.60262720000003,102.6036044,102.58705269999996,0,color1_L,audio1_L_file,,,,,,,,,,,,,,,,,,,,,,,,,,,,,,,,,595945,001,2026-05-11_11h28.56.522,VAWM,,2026.1.3,60.01583217654687,2026-05-11 11h28.57.488074 -0500,
1,#008470,#002C21,#00BBBF,38.65,25.32,58.08,#C3704D,#FD852F,#874613,34.0,20.46,41.58,m,theta,b,1,5,T02,T02,T02,stimuli/T02_ama.wav,stimuli/T02_athetaa.wav,stimuli/T02_aba.wav,v,n,d,4,81,T03,T03,T03,stimuli/T03_ava.wav,stimuli/T03_ana.wav,stimuli/T03_ada.wav,4,0,4,None,,0,0,0,0,4,0,4,0,,,,,,,,,,,,,,,,,,,,,,,,,,,,,,,,,,,,,,,,,102.6036044,,,,,,,,,,,,,,,,,,,,,,,,,,,,,102.59012829999995,102.6036044,102.9038031,102.92041519999998,102.92046976666667,103.7877952,103.92134580000004,105.10558679999997,no_response,0,stimuli/T02_ama.wav,#008470,4,None,105.10565970000005,105.88973139999996,106.89008639999997,106.87394040000004,0,color1_target,audio1_target_file,,,,,,,,,,,,,,,,,,,,,,,,,,,,,,,,,595945,001,2026-05-11_11h28.56.522,VAWM,,2026.1.3,60.01583217654687,2026-05-11 11h28.57.488074 -0500,
1,#008470,#002C21,#00BBBF,38.65,25.32,58.08,#C3704D,#FD852F,#874613,34.0,20.46,41.58,m,theta,b,1,5,T02,T02,T02,stimuli/T02_ama.wav,stimuli/T02_athetaa.wav,stimuli/T02_aba.wav,v,n,d,4,81,T03,T03,T03,stimuli/T03_ava.wav,stimuli/T03_ana.wav,stimuli/T03_ada.wav,5,0,5,None,,0,0,0,0,5,0,5,0,,,,,,,,,,,,,,,,,,,,,,,,,,,,,,,,,,,,,,,,,106.89008639999997,,,,,,,,,,,,,,,,,,,,,,,,,,,,,106.88587819999998,106.89008639999997,107.19056760000001,107.20744439999999,107.20723426666667,108.12490700000001,108.20810630000005,109.39257669999995,no_response,10,stimuli/T02_athetaa.wav,#00BBBF,5,None,109.39265909999995,110.19330790000004,111.19392470000003,111.17764350000004,0,color1_L,audio1_H_file,,,,,,,,,,,,,,,,,,,,,,,,,,,,,,,,,595945,001,2026-05-11_11h28.56.522,VAWM,,2026.1.3,60.01583217654687,2026-05-11 11h28.57.488074 -0500,
1,#008470,#002C21,#00BBBF,38.65,25.32,58.08,#C3704D,#FD852F,#874613,34.0,20.46,41.58,m,theta,b,1,5,T02,T02,T02,stimuli/T02_ama.wav,stimuli/T02_athetaa.wav,stimuli/T02_aba.wav,v,n,d,4,81,T03,T03,T03,stimuli/T03_ava.wav,stimuli/T03_ana.wav,stimuli/T03_ada.wav,6,0,6,3,1.373,0,0,0,0,6,0,6,0,,,,,,,,,,,,,,,,,,,,,,,,,,,,,,,,,,,,,,,,,111.19392470000003,,,,,,,,,,,,,,,,,,,,,,,,,,,,,111.18057680000004,111.19392470000003,111.49417940000001,111.51087359999997,111.51084606666667,112.37878639999997,112.51170119999995,113.07884079999997,no_response,0,stimuli/T02_ama.wav,#008470,6,3,113.07893509999997,113.09536530000003,,114.07977359999995,0,color1_target,audio1_target_file,1.373,,,,,,,,,,,,,,,,,,,,,,,,,,,,,,,,595945,001,2026-05-11_11h28.56.522,VAWM,,2026.1.3,60.01583217654687,2026-05-11 11h28.57.488074 -0500,
1,#008470,#002C21,#00BBBF,38.65,25.32,58.08,#C3704D,#FD852F,#874613,34.0,20.46,41.58,m,theta,b,1,5,T02,T02,T02,stimuli/T02_ama.wav,stimuli/T02_athetaa.wav,stimuli/T02_aba.wav,v,n,d,4,81,T03,T03,T03,stimuli/T03_ava.wav,stimuli/T03_ana.wav,stimuli/T03_ada.wav,7,0,7,4,1.675,0,0,0,0,7,0,7,0,,,,,,,,,,,,,,,,,,,,,,,,,,,,,,,,,,,,,,,,,114.09601359999999,,,,,,,,,,,,,,,,,,,,,,,,,,,,,114.08254320000003,114.09601359999999,114.39634450000005,114.41374080000003,114.41301116666672,115.28062810000006,115.41403249999996,116.28196660000003,no_response,12,stimuli/T02_ama.wav,#00BBBF,7,4,116.28204129999995,116.29797510000003,,117.28269390000003,0,color1_L,audio1_target_file,1.675,,,,,,,,,,,,,,,,,,,,,,,,,,,,,,,,595945,001,2026-05-11_11h28.56.522,VAWM,,2026.1.3,60.01583217654687,2026-05-11 11h28.57.488074 -0500,
1,#008470,#002C21,#00BBBF,38.65,25.32,58.08,#C3704D,#FD852F,#874613,34.0,20.46,41.58,m,theta,b,1,5,T02,T02,T02,stimuli/T02_ama.wav,stimuli/T02_athetaa.wav,stimuli/T02_aba.wav,v,n,d,4,81,T03,T03,T03,stimuli/T03_ava.wav,stimuli/T03_ana.wav,stimuli/T03_ada.wav,8,0,8,None,,0,0,0,0,8,0,8,0,,,,,,,,,,,,,,,,,,,,,,,,,,,,,,,,,,,,,,,,,117.29931090000002,,,,,,,,,,,,,,,,,,,,,,,,,,,,,117.28569040000002,117.29931090000002,117.59927949999997,117.61590260000003,117.61594616666663,118.5331026,118.61665519999997,119.80094240000005,no_response,2,stimuli/T02_athetaa.wav,#008470,8,None,119.80100059999995,120.58508059999997,121.60254280000004,121.56937470000003,0,color1_target,audio1_H_file,,,,,,,,,,,,,,,,,,,,,,,,,,,,,,,,,595945,001,2026-05-11_11h28.56.522,VAWM,,2026.1.3,60.01583217654687,2026-05-11 11h28.57.488074 -0500,
1,#008470,#002C21,#00BBBF,38.65,25.32,58.08,#C3704D,#FD852F,#874613,34.0,20.46,41.58,m,theta,b,1,5,T02,T02,T02,stimuli/T02_ama.wav,stimuli/T02_athetaa.wav,stimuli/T02_aba.wav,v,n,d,4,81,T03,T03,T03,stimuli/T03_ava.wav,stimuli/T03_ana.wav,stimuli/T03_ada.wav,0,0,0,,,0,0,0,0,,,,,,,,,,,,,,,,,,,,,,,,,,,,,,,,,,,,,,,,,,,,,,,,,,,,,,,,,,,,,,,,,,,,,,,,,,,,,,,,,,,,,,,,,,,,,,,,,,,,,,,,,,,,,,,,,,,,,,,,,,,,,,,595945,001,2026-05-11_11h28.56.522,VAWM,,2026.1.3,60.01583217654687,2026-05-11 11h28.57.488074 -0500,
2,#0071BA,#002E70,#0097EF,39.35,24.85,43.95,#DA5C51,#FF60A8,#944D31,42.41,25.82,59.2,f,sh,theta,1,151,T12,T12,T12,stimuli/T12_afa.wav,stimuli/T12_asha.wav,stimuli/T12_athetaa.wav,d,b,zh,12,39,T07,T07,T07,stimuli/T07_ada.wav,stimuli/T07_aba.wav,stimuli/T07_azha.wav,0,0,0,3,0.833,0,1,1,1,0,0,0,0,,,,,,,,,,,,,,,,,,,,,,,,,,,,,,,,,,,,,,,,,125.7225072,,,,,,,,,,,,,,,,,121.5890875,121.60254280000004,121.9027754,121.91937429999996,122.90346729999999,122.92012669999997,123.90435090000005,123.90443516666666,124.8220685,124.88872786666663,125.70597569999995,125.70601239999996,125.71621890000006,125.7225072,126.02287220000005,126.039624,126.03953886666672,126.85679400000004,127.04033140000001,127.07343270000001,no_response,9,stimuli/T07_aba.wav,#FF60A8,0,3,127.07451939999999,127.0901457,,128.07459919999997,1,color2_H,audio2_H_file,0.833,,,,,,,,,,,,,,,,,,,,,,,,,,,,,,,,595945,001,2026-05-11_11h28.56.522,VAWM,,2026.1.3,60.01583217654687,2026-05-11 11h28.57.488074 -0500,
2,#0071BA,#002E70,#0097EF,39.35,24.85,43.95,#DA5C51,#FF60A8,#944D31,42.41,25.82,59.2,f,sh,theta,1,151,T12,T12,T12,stimuli/T12_afa.wav,stimuli/T12_asha.wav,stimuli/T12_athetaa.wav,d,b,zh,12,39,T07,T07,T07,stimuli/T07_ada.wav,stimuli/T07_aba.wav,stimuli/T07_azha.wav,1,0,1,None,,0,1,1,1,1,0,1,0,,,,,,,,,,,,,,,,,,,,,,,,,,,,,,,,,,,,,,,,,128.09114039999997,,,,,,,,,,,,,,,,,,,,,,,,,,,,,128.07759520000002,128.09114039999997,128.3916216,128.40829040000006,128.4082882666667,129.32550920000006,129.4089735,130.59313329999998,no_response,6,stimuli/T12_afa.wav,#002E70,1,None,130.5949796,131.3772699,132.37816120000002,132.36178800000005,0,color1_H,audio1_target_file,,,,,,,,,,,,,,,,,,,,,,,,,,,,,,,,,595945,001,2026-05-11_11h28.56.522,VAWM,,2026.1.3,60.01583217654687,2026-05-11 11h28.57.488074 -0500,
2,#0071BA,#002E70,#0097EF,39.35,24.85,43.95,#DA5C51,#FF60A8,#944D31,42.41,25.82,59.2,f,sh,theta,1,151,T12,T12,T12,stimuli/T12_afa.wav,stimuli/T12_asha.wav,stimuli/T12_athetaa.wav,d,b,zh,12,39,T07,T07,T07,stimuli/T07_ada.wav,stimuli/T07_aba.wav,stimuli/T07_azha.wav,2,0,2,4,0.859,0,1,1,1,2,0,2,0,,,,,,,,,,,,,,,,,,,,,,,,,,,,,,,,,,,,,,,,,132.37816120000002,,,,,,,,,,,,,,,,,,,,,,,,,,,,,132.36432909999996,132.37816120000002,132.67842270000006,132.6948251,132.69508936666674,133.6123602,133.69566069999996,133.74581650000005,no_response,12,stimuli/T12_afa.wav,#0097EF,2,4,133.74589809999998,133.76255460000004,,134.7469681,0,color1_L,audio1_target_file,0.859,,,,,,,,,,,,,,,,,,,,,,,,,,,,,,,,595945,001,2026-05-11_11h28.56.522,VAWM,,2026.1.3,60.01583217654687,2026-05-11 11h28.57.488074 -0500,
2,#0071BA,#002E70,#0097EF,39.35,24.85,43.95,#DA5C51,#FF60A8,#944D31,42.41,25.82,59.2,f,sh,theta,1,151,T12,T12,T12,stimuli/T12_afa.wav,stimuli/T12_asha.wav,stimuli/T12_athetaa.wav,d,b,zh,12,39,T07,T07,T07,stimuli/T07_ada.wav,stimuli/T07_aba.wav,stimuli/T07_azha.wav,3,0,3,3,0.922,0,1,1,1,3,0,3,0,,,,,,,,,,,,,,,,,,,,,,,,,,,,,,,,,,,,,,,,,134.78024440000002,,,,,,,,,,,,,,,,,,,,,,,,,,,,,134.7607921,134.78024440000002,135.0800891,135.0800891,135.08027386666666,135.9810933,136.08108360000006,136.19787770000005,no_response,17,stimuli/T07_azha.wav,#944D31,3,3,136.19894220000003,136.21456750000004,,137.19898469999998,1,color2_L,audio2_L_file,0.922,,,,,,,,,,,,,,,,,,,,,,,,,,,,,,,,595945,001,2026-05-11_11h28.56.522,VAWM,,2026.1.3,60.01583217654687,2026-05-11 11h28.57.488074 -0500,
2,#0071BA,#002E70,#0097EF,39.35,24.85,43.95,#DA5C51,#FF60A8,#944D31,42.41,25.82,59.2,f,sh,theta,1,151,T12,T12,T12,stimuli/T12_afa.wav,stimuli/T12_asha.wav,stimuli/T12_athetaa.wav,d,b,zh,12,39,T07,T07,T07,stimuli/T07_ada.wav,stimuli/T07_aba.wav,stimuli/T07_azha.wav,4,0,4,None,,0,1,1,1,4,0,4,0,,,,,,,,,,,,,,,,,,,,,,,,,,,,,,,,,,,,,,,,,137.2152648,,,,,,,,,,,,,,,,,,,,,,,,,,,,,137.21061970000005,137.2152648,137.51534270000002,137.53214609999998,137.5320093666667,138.4496395,138.5330285,139.717629,no_response,16,stimuli/T12_athetaa.wav,#0097EF,4,None,139.71869100000004,140.51809000000003,141.51887050000005,141.50232860000006,0,color1_L,audio1_L_file,,,,,,,,,,,,,,,,,,,,,,,,,,,,,,,,,595945,001,2026-05-11_11h28.56.522,VAWM,,2026.1.3,60.01583217654687,2026-05-11 11h28.57.488074 -0500,
2,#0071BA,#002E70,#0097EF,39.35,24.85,43.95,#DA5C51,#FF60A8,#944D31,42.41,25.82,59.2,f,sh,theta,1,151,T12,T12,T12,stimuli/T12_afa.wav,stimuli/T12_asha.wav,stimuli/T12_athetaa.wav,d,b,zh,12,39,T07,T07,T07,stimuli/T07_ada.wav,stimuli/T07_aba.wav,stimuli/T07_azha.wav,5,0,5,4,1.014,0,1,1,1,5,0,5,0,,,,,,,,,,,,,,,,,,,,,,,,,,,,,,,,,,,,,,,,,141.51887050000005,,,,,,,,,,,,,,,,,,,,,,,,,,,,,141.50492169999995,141.51887050000005,141.81938649999995,141.83591030000002,141.83605316666663,142.7532483,142.8363925,143.03706339999997,no_response,4,stimuli/T12_athetaa.wav,#0071BA,5,4,143.03712789999997,143.05351470000005,,144.03771500000005,0,color1_target,audio1_L_file,1.014,,,,,,,,,,,,,,,,,,,,,,,,,,,,,,,,595945,001,2026-05-11_11h28.56.522,VAWM,,2026.1.3,60.01583217654687,2026-05-11 11h28.57.488074 -0500,
2,#0071BA,#002E70,#0097EF,39.35,24.85,43.95,#DA5C51,#FF60A8,#944D31,42.41,25.82,59.2,f,sh,theta,1,151,T12,T12,T12,stimuli/T12_afa.wav,stimuli/T12_asha.wav,stimuli/T12_athetaa.wav,d,b,zh,12,39,T07,T07,T07,stimuli/T07_ada.wav,stimuli/T07_aba.wav,stimuli/T07_azha.wav,6,0,6,None,,0,1,1,1,6,0,6,0,,,,,,,,,,,,,,,,,,,,,,,,,,,,,,,,,,,,,,,,,144.0544059,,,,,,,,,,,,,,,,,,,,,,,,,,,,,144.04022129999998,144.0544059,144.3545884,144.37110199999995,144.3712550666667,145.2884355,145.37205140000003,146.556469,no_response,0,stimuli/T12_afa.wav,#0071BA,6,None,146.5565438,147.34042409999995,148.3413041,148.3247741,0,color1_target,audio1_target_file,,,,,,,,,,,,,,,,,,,,,,,,,,,,,,,,,595945,001,2026-05-11_11h28.56.522,VAWM,,2026.1.3,60.01583217654687,2026-05-11 11h28.57.488074 -0500,
2,#0071BA,#002E70,#0097EF,39.35,24.85,43.95,#DA5C51,#FF60A8,#944D31,42.41,25.82,59.2,f,sh,theta,1,151,T12,T12,T12,stimuli/T12_afa.wav,stimuli/T12_asha.wav,stimuli/T12_athetaa.wav,d,b,zh,12,39,T07,T07,T07,stimuli/T07_ada.wav,stimuli/T07_aba.wav,stimuli/T07_azha.wav,7,0,7,4,0.645,0,1,1,1,7,0,7,0,,,,,,,,,,,,,,,,,,,,,,,,,,,,,,,,,,,,,,,,,148.3413041,,,,,,,,,,,,,,,,,,,,,,,,,,,,,148.3272475,148.3413041,148.641485,148.65815640000005,148.65815166666667,,,149.49234260000003,no_response,0,stimuli/T12_afa.wav,#0071BA,7,4,149.50489890000006,149.5086516,150.50984270000004,150.49313840000002,1,color1_target,audio1_target_file,0.645,,,,,,,,,,,,,,,,,,,,,,,,,,,,,,,,595945,001,2026-05-11_11h28.56.522,VAWM,,2026.1.3,60.01583217654687,2026-05-11 11h28.57.488074 -0500,
2,#0071BA,#002E70,#0097EF,39.35,24.85,43.95,#DA5C51,#FF60A8,#944D31,42.41,25.82,59.2,f,sh,theta,1,151,T12,T12,T12,stimuli/T12_afa.wav,stimuli/T12_asha.wav,stimuli/T12_athetaa.wav,d,b,zh,12,39,T07,T07,T07,stimuli/T07_ada.wav,stimuli/T07_aba.wav,stimuli/T07_azha.wav,8,0,8,3,0.677,0,1,1,1,8,0,8,0,,,,,,,,,,,,,,,,,,,,,,,,,,,,,,,,,,,,,,,,,150.50984270000004,,,,,,,,,,,,,,,,,,,,,,,,,,,,,150.49557059999995,150.50984270000004,150.809884,150.82661080000003,150.8265506666667,151.64390849999995,,151.7107284,no_response,3,stimuli/T07_aba.wav,#DA5C51,8,3,151.71078569999997,151.72706549999998,,152.71183029999997,1,color2_target,audio2_H_file,0.677,,,,,,,,,,,,,,,,,,,,,,,,,,,,,,,,595945,001,2026-05-11_11h28.56.522,VAWM,,2026.1.3,60.01583217654687,2026-05-11 11h28.57.488074 -0500,
2,#0071BA,#002E70,#0097EF,39.35,24.85,43.95,#DA5C51,#FF60A8,#944D31,42.41,25.82,59.2,f,sh,theta,1,151,T12,T12,T12,stimuli/T12_afa.wav,stimuli/T12_asha.wav,stimuli/T12_athetaa.wav,d,b,zh,12,39,T07,T07,T07,stimuli/T07_ada.wav,stimuli/T07_aba.wav,stimuli/T07_azha.wav,1,1,0,,,0,1,1,1,,,,,,,,,,,,,,,,,,,,,,,,,,,,,,,,,,,,,,,,,,,,,,,,,,,,,,,,,,,,,,,,,,,,,,,,,,,,,,,,,,,,,,,,,,,,,,,,,,,,,,,,,,,,,,,,,,,,,,,,,,,,,,,595945,001,2026-05-11_11h28.56.522,VAWM,,2026.1.3,60.01583217654687,2026-05-11 11h28.57.488074 -0500,
3,#A77FC9,#FFC5FF,#5760C9,30.25,27.21,53.26,#0079B7,#007CED,#00366B,33.84,28.18,44.56,v,m,eth,7,379,T04,T04,T04,stimuli/T04_ava.wav,stimuli/T04_ama.wav,stimuli/T04_aetha.wav,n,g,d,2,5,T07,T07,T07,stimuli/T07_ana.wav,stimuli/T07_aga.wav,stimuli/T07_ada.wav,0,0,0,3,0.846,0,2,2,2,0,0,0,0,,,,,,,,,,,,,,,,,,,,,,,,,,,,,,,,,,,,,,,,,156.89821870000003,,,,,,,,,,,,,,,,,152.71790350000003,152.72834690000002,153.0284616,153.04503120000004,154.0294295,154.04596149999998,155.0299351,155.03002656666663,155.91414120000002,156.0309478666667,156.88145569999995,156.88149320000002,156.88311280000005,156.89821870000003,157.19857430000002,157.21522790000006,157.2152409666667,158.03277300000002,158.21615359999998,158.26601700000003,no_response,5,stimuli/T07_ada.wav,#0079B7,0,3,158.2660853,158.28289930000005,,159.26677989999996,1,color2_target,audio2_L_file,0.846,,,,,,,,,,,,,,,,,,,,,,,,,,,,,,,,595945,001,2026-05-11_11h28.56.522,VAWM,,2026.1.3,60.01583217654687,2026-05-11 11h28.57.488074 -0500,
3,#A77FC9,#FFC5FF,#5760C9,30.25,27.21,53.26,#0079B7,#007CED,#00366B,33.84,28.18,44.56,v,m,eth,7,379,T04,T04,T04,stimuli/T04_ava.wav,stimuli/T04_ama.wav,stimuli/T04_aetha.wav,n,g,d,2,5,T07,T07,T07,stimuli/T07_ana.wav,stimuli/T07_aga.wav,stimuli/T07_ada.wav,1,0,1,3,0.785,0,2,2,2,1,0,1,0,,,,,,,,,,,,,,,,,,,,,,,,,,,,,,,,,,,,,,,,,159.28356210000004,,,,,,,,,,,,,,,,,,,,,,,,,,,,,159.26928780000003,159.28356210000004,159.58389780000005,159.6005318,159.60056446666673,160.48439270000006,,160.58450570000002,no_response,0,stimuli/T04_ava.wav,#A77FC9,1,3,160.58557919999998,160.60128880000002,,161.58535859999995,0,color1_target,audio1_target_file,0.785,,,,,,,,,,,,,,,,,,,,,,,,,,,,,,,,595945,001,2026-05-11_11h28.56.522,VAWM,,2026.1.3,60.01583217654687,2026-05-11 11h28.57.488074 -0500,
3,#A77FC9,#FFC5FF,#5760C9,30.25,27.21,53.26,#0079B7,#007CED,#00366B,33.84,28.18,44.56,v,m,eth,7,379,T04,T04,T04,stimuli/T04_ava.wav,stimuli/T04_ama.wav,stimuli/T04_aetha.wav,n,g,d,2,5,T07,T07,T07,stimuli/T07_ana.wav,stimuli/T07_aga.wav,stimuli/T07_ada.wav,2,0,2,4,1.161,0,2,2,2,2,0,2,0,,,,,,,,,,,,,,,,,,,,,,,,,,,,,,,,,,,,,,,,,161.60231420000002,,,,,,,,,,,,,,,,,,,,,,,,,,,,,161.59530619999998,161.60231420000002,161.9025587,161.91923799999995,161.91922536666667,162.7866348,162.91995799999995,163.2702521,no_response,10,stimuli/T04_ama.wav,#5760C9,2,4,163.270313,163.28686270000003,,164.27107990000002,0,color1_L,audio1_H_file,1.161,,,,,,,,,,,,,,,,,,,,,,,,,,,,,,,,595945,001,2026-05-11_11h28.56.522,VAWM,,2026.1.3,60.01583217654687,2026-05-11 11h28.57.488074 -0500,
3,#A77FC9,#FFC5FF,#5760C9,30.25,27.21,53.26,#0079B7,#007CED,#00366B,33.84,28.18,44.56,v,m,eth,7,379,T04,T04,T04,stimuli/T04_ava.wav,stimuli/T04_ama.wav,stimuli/T04_aetha.wav,n,g,d,2,5,T07,T07,T07,stimuli/T07_ana.wav,stimuli/T07_aga.wav,stimuli/T07_ada.wav,3,0,3,3,1.825,0,2,2,2,3,0,3,0,,,,,,,,,,,,,,,,,,,,,,,,,,,,,,,,,,,,,,,,,164.2877426,,,,,,,,,,,,,,,,,,,,,,,,,,,,,164.27334399999995,164.2877426,164.58794890000001,164.60467289999997,164.6046155666667,165.4550448,165.605641,166.62308440000004,no_response,1,stimuli/T07_ana.wav,#0079B7,3,3,166.62315,166.63951350000002,,167.62369769999998,0,color2_target,audio2_target_file,1.825,,,,,,,,,,,,,,,,,,,,,,,,,,,,,,,,595945,001,2026-05-11_11h28.56.522,VAWM,,2026.1.3,60.01583217654687,2026-05-11 11h28.57.488074 -0500,
3,#A77FC9,#FFC5FF,#5760C9,30.25,27.21,53.26,#0079B7,#007CED,#00366B,33.84,28.18,44.56,v,m,eth,7,379,T04,T04,T04,stimuli/T04_ava.wav,stimuli/T04_ama.wav,stimuli/T04_aetha.wav,n,g,d,2,5,T07,T07,T07,stimuli/T07_ana.wav,stimuli/T07_aga.wav,stimuli/T07_ada.wav,4,0,4,None,,0,2,2,2,4,0,4,0,,,,,,,,,,,,,,,,,,,,,,,,,,,,,,,,,,,,,,,,,167.64046589999998,,,,,,,,,,,,,,,,,,,,,,,,,,,,,167.62593059999995,167.64046589999998,167.94073720000006,167.95739939999999,167.95740386666674,168.8081717,168.95820890000005,170.142338,no_response,7,stimuli/T07_ana.wav,#007CED,4,None,170.14239320000001,170.92666970000005,171.92736690000004,171.91114670000002,0,color2_H,audio2_target_file,,,,,,,,,,,,,,,,,,,,,,,,,,,,,,,,,595945,001,2026-05-11_11h28.56.522,VAWM,,2026.1.3,60.01583217654687,2026-05-11 11h28.57.488074 -0500,
3,#A77FC9,#FFC5FF,#5760C9,30.25,27.21,53.26,#0079B7,#007CED,#00366B,33.84,28.18,44.56,v,m,eth,7,379,T04,T04,T04,stimuli/T04_ava.wav,stimuli/T04_ama.wav,stimuli/T04_aetha.wav,n,g,d,2,5,T07,T07,T07,stimuli/T07_ana.wav,stimuli/T07_aga.wav,stimuli/T07_ada.wav,5,0,5,3,1.634,0,2,2,2,5,0,5,0,,,,,,,,,,,,,,,,,,,,,,,,,,,,,,,,,,,,,,,,,171.92736690000004,,,,,,,,,,,,,,,,,,,,,,,,,,,,,171.9134547,171.92736690000004,172.22781980000002,172.24421589999997,172.2444864666667,173.09494429999995,173.24506740000004,174.07910170000002,no_response,13,stimuli/T07_ana.wav,#00366B,5,3,174.08021940000003,174.0957813,,175.0799856,1,color2_L,audio2_target_file,1.634,,,,,,,,,,,,,,,,,,,,,,,,,,,,,,,,595945,001,2026-05-11_11h28.56.522,VAWM,,2026.1.3,60.01583217654687,2026-05-11 11h28.57.488074 -0500,
3,#A77FC9,#FFC5FF,#5760C9,30.25,27.21,53.26,#0079B7,#007CED,#00366B,33.84,28.18,44.56,v,m,eth,7,379,T04,T04,T04,stimuli/T04_ava.wav,stimuli/T04_ama.wav,stimuli/T04_aetha.wav,n,g,d,2,5,T07,T07,T07,stimuli/T07_ana.wav,stimuli/T07_aga.wav,stimuli/T07_ada.wav,6,0,6,3,1.973,0,2,2,2,6,0,6,0,,,,,,,,,,,,,,,,,,,,,,,,,,,,,,,,,,,,,,,,,175.09662219999996,,,,,,,,,,,,,,,,,,,,,,,,,,,,,175.0892824,175.09662219999996,175.39700330000005,175.4134504,175.41366996666673,176.23105669999995,176.4142875,177.5821042,no_response,9,stimuli/T07_aga.wav,#007CED,6,3,177.58222460000002,177.59868229999995,,178.58290810000005,1,color2_H,audio2_H_file,1.973,,,,,,,,,,,,,,,,,,,,,,,,,,,,,,,,595945,001,2026-05-11_11h28.56.522,VAWM,,2026.1.3,60.01583217654687,2026-05-11 11h28.57.488074 -0500,
3,#A77FC9,#FFC5FF,#5760C9,30.25,27.21,53.26,#0079B7,#007CED,#00366B,33.84,28.18,44.56,v,m,eth,7,379,T04,T04,T04,stimuli/T04_ava.wav,stimuli/T04_ama.wav,stimuli/T04_aetha.wav,n,g,d,2,5,T07,T07,T07,stimuli/T07_ana.wav,stimuli/T07_aga.wav,stimuli/T07_ada.wav,7,0,7,4,1.885,0,2,2,2,7,0,7,0,,,,,,,,,,,,,,,,,,,,,,,,,,,,,,,,,,,,,,,,,178.59951209999997,,,,,,,,,,,,,,,,,,,,,,,,,,,,,178.5844426,178.59951209999997,178.89967560000002,178.9164545,178.9163422666667,179.783857,179.9171606,181.00160489999996,no_response,8,stimuli/T04_ama.wav,#FFC5FF,7,4,181.00267470000006,181.01813800000002,,182.0024244,0,color1_H,audio1_H_file,1.885,,,,,,,,,,,,,,,,,,,,,,,,,,,,,,,,595945,001,2026-05-11_11h28.56.522,VAWM,,2026.1.3,60.01583217654687,2026-05-11 11h28.57.488074 -0500,
3,#A77FC9,#FFC5FF,#5760C9,30.25,27.21,53.26,#0079B7,#007CED,#00366B,33.84,28.18,44.56,v,m,eth,7,379,T04,T04,T04,stimuli/T04_ava.wav,stimuli/T04_ama.wav,stimuli/T04_aetha.wav,n,g,d,2,5,T07,T07,T07,stimuli/T07_ana.wav,stimuli/T07_aga.wav,stimuli/T07_ada.wav,8,0,8,None,,0,2,2,2,8,0,8,0,,,,,,,,,,,,,,,,,,,,,,,,,,,,,,,,,,,,,,,,,182.0187548,,,,,,,,,,,,,,,,,,,,,,,,,,,,,182.00411340000005,182.0187548,182.31947090000006,182.33578950000003,182.33613756666674,183.2032736,183.33675700000003,184.52120109999998,no_response,2,stimuli/T04_ama.wav,#A77FC9,8,None,184.52126529999998,185.30525279999995,186.3226661,186.28925249999998,0,color1_target,audio1_H_file,,,,,,,,,,,,,,,,,,,,,,,,,,,,,,,,,595945,001,2026-05-11_11h28.56.522,VAWM,,2026.1.3,60.01583217654687,2026-05-11 11h28.57.488074 -0500,
3,#A77FC9,#FFC5FF,#5760C9,30.25,27.21,53.26,#0079B7,#007CED,#00366B,33.84,28.18,44.56,v,m,eth,7,379,T04,T04,T04,stimuli/T04_ava.wav,stimuli/T04_ama.wav,stimuli/T04_aetha.wav,n,g,d,2,5,T07,T07,T07,stimuli/T07_ana.wav,stimuli/T07_aga.wav,stimuli/T07_ada.wav,2,2,0,,,0,2,2,2,,,,,,,,,,,,,,,,,,,,,,,,,,,,,,,,,,,,,,,,,,,,,,,,,,,,,,,,,,,,,,,,,,,,,,,,,,,,,,,,,,,,,,,,,,,,,,,,,,,,,,,,,,,,,,,,,,,,,,,,,,,,,,,595945,001,2026-05-11_11h28.56.522,VAWM,,2026.1.3,60.01583217654687,2026-05-11 11h28.57.488074 -0500,
4,#008484,#0091DC,#007D68,47.54,20.63,66.22,#3D62C6,#925A82,#4A5496,44.24,20.08,29.56,sh,m,theta,1,9,T04,T04,T04,stimuli/T04_asha.wav,stimuli/T04_ama.wav,stimuli/T04_athetaa.wav,theta,d,p,4,35,T12,T12,T12,stimuli/T12_athetaa.wav,stimuli/T12_ada.wav,stimuli/T12_apa.wav,0,0,0,4,1.205,0,3,3,3,0,0,0,0,,,,,,,,,,,,,,,,,,,,,,,,,,,,,,,,,,,,,,,,,190.5424084,,,,,,,,,,,,,,,,,186.3049896,186.3226661,186.62303880000002,186.62303880000002,187.6069559,187.6236718,188.60777889999997,188.60801156666665,189.54206910000005,189.60860386666664,190.52622110000004,190.52626610000004,190.53544739999995,190.5424084,190.84291859999996,190.8596453,190.85958526666664,191.77708500000006,191.86058249999996,192.26080160000004,no_response,14,stimuli/T04_athetaa.wav,#0091DC,0,4,192.26086410000005,192.27720190000002,,193.261664,0,color1_H,audio1_L_file,1.205,,,,,,,,,,,,,,,,,,,,,,,,,,,,,,,,595945,001,2026-05-11_11h28.56.522,VAWM,,2026.1.3,60.01583217654687,2026-05-11 11h28.57.488074 -0500,
4,#008484,#0091DC,#007D68,47.54,20.63,66.22,#3D62C6,#925A82,#4A5496,44.24,20.08,29.56,sh,m,theta,1,9,T04,T04,T04,stimuli/T04_asha.wav,stimuli/T04_ama.wav,stimuli/T04_athetaa.wav,theta,d,p,4,35,T12,T12,T12,stimuli/T12_athetaa.wav,stimuli/T12_ada.wav,stimuli/T12_apa.wav,1,0,1,4,1.199,0,3,3,3,1,0,1,0,,,,,,,,,,,,,,,,,,,,,,,,,,,,,,,,,,,,,,,,,193.27837290000002,,,,,,,,,,,,,,,,,,,,,,,,,,,,,193.2646347,193.27837290000002,193.5787851,193.59521080000002,193.59545176666668,194.52952240000002,194.59619410000005,194.99644809999995,no_response,0,stimuli/T04_asha.wav,#008484,1,4,194.9975326,195.01293929999997,,195.99748120000004,1,color1_target,audio1_target_file,1.199,,,,,,,,,,,,,,,,,,,,,,,,,,,,,,,,595945,001,2026-05-11_11h28.56.522,VAWM,,2026.1.3,60.01583217654687,2026-05-11 11h28.57.488074 -0500,
4,#008484,#0091DC,#007D68,47.54,20.63,66.22,#3D62C6,#925A82,#4A5496,44.24,20.08,29.56,sh,m,theta,1,9,T04,T04,T04,stimuli/T04_asha.wav,stimuli/T04_ama.wav,stimuli/T04_athetaa.wav,theta,d,p,4,35,T12,T12,T12,stimuli/T12_athetaa.wav,stimuli/T12_ada.wav,stimuli/T12_apa.wav,2,0,2,4,1.248,0,3,3,3,2,0,2,0,,,,,,,,,,,,,,,,,,,,,,,,,,,,,,,,,,,,,,,,,196.01379510000004,,,,,,,,,,,,,,,,,,,,,,,,,,,,,196.00047640000003,196.01379510000004,196.31434339999998,196.33075150000002,196.33101006666666,197.2649417,197.33138369999995,197.7821106,no_response,0,stimuli/T04_asha.wav,#008484,2,4,197.78217199999995,197.7985691,,198.7829365,1,color1_target,audio1_target_file,1.248,,,,,,,,,,,,,,,,,,,,,,,,,,,,,,,,595945,001,2026-05-11_11h28.56.522,VAWM,,2026.1.3,60.01583217654687,2026-05-11 11h28.57.488074 -0500,
4,#008484,#0091DC,#007D68,47.54,20.63,66.22,#3D62C6,#925A82,#4A5496,44.24,20.08,29.56,sh,m,theta,1,9,T04,T04,T04,stimuli/T04_asha.wav,stimuli/T04_ama.wav,stimuli/T04_athetaa.wav,theta,d,p,4,35,T12,T12,T12,stimuli/T12_athetaa.wav,stimuli/T12_ada.wav,stimuli/T12_apa.wav,3,0,3,4,1.814,0,3,3,3,3,0,3,0,,,,,,,,,,,,,,,,,,,,,,,,,,,,,,,,,,,,,,,,,198.81635700000004,,,,,,,,,,,,,,,,,,,,,,,,,,,,,198.79664119999995,198.81635700000004,199.11645399999998,199.11645399999998,199.1164724666667,199.93379089999996,200.11725550000006,201.1182232,no_response,11,stimuli/T12_ada.wav,#4A5496,3,4,201.11944600000004,201.13482190000002,,202.11895649999997,0,color2_L,audio2_H_file,1.814,,,,,,,,,,,,,,,,,,,,,,,,,,,,,,,,595945,001,2026-05-11_11h28.56.522,VAWM,,2026.1.3,60.01583217654687,2026-05-11 11h28.57.488074 -0500,
4,#008484,#0091DC,#007D68,47.54,20.63,66.22,#3D62C6,#925A82,#4A5496,44.24,20.08,29.56,sh,m,theta,1,9,T04,T04,T04,stimuli/T04_asha.wav,stimuli/T04_ama.wav,stimuli/T04_athetaa.wav,theta,d,p,4,35,T12,T12,T12,stimuli/T12_athetaa.wav,stimuli/T12_ada.wav,stimuli/T12_apa.wav,4,0,4,3,0.854,0,3,3,3,4,0,4,0,,,,,,,,,,,,,,,,,,,,,,,,,,,,,,,,,,,,,,,,,202.13589220000006,,,,,,,,,,,,,,,,,,,,,,,,,,,,,202.1219592,202.13589220000006,202.43609430000004,202.45225070000004,202.45276096666672,203.3700778,203.4534863,203.50358110000002,no_response,7,stimuli/T12_athetaa.wav,#925A82,4,3,203.5048183,203.52017820000003,,204.50444100000004,1,color2_H,audio2_target_file,0.854,,,,,,,,,,,,,,,,,,,,,,,,,,,,,,,,595945,001,2026-05-11_11h28.56.522,VAWM,,2026.1.3,60.01583217654687,2026-05-11 11h28.57.488074 -0500,
4,#008484,#0091DC,#007D68,47.54,20.63,66.22,#3D62C6,#925A82,#4A5496,44.24,20.08,29.56,sh,m,theta,1,9,T04,T04,T04,stimuli/T04_asha.wav,stimuli/T04_ama.wav,stimuli/T04_athetaa.wav,theta,d,p,4,35,T12,T12,T12,stimuli/T12_athetaa.wav,stimuli/T12_ada.wav,stimuli/T12_apa.wav,5,0,5,4,0.785,0,3,3,3,5,0,5,0,,,,,,,,,,,,,,,,,,,,,,,,,,,,,,,,,,,,,,,,,204.52115619999995,,,,,,,,,,,,,,,,,,,,,,,,,,,,,204.50605069999995,204.52115619999995,204.8202847,204.8202847,204.82996296666673,205.68769169999996,205.8211599,205.821233,no_response,2,stimuli/T04_ama.wav,#008484,5,4,205.82235219999995,205.83780420000005,,206.823262,0,color1_target,audio1_H_file,0.785,,,,,,,,,,,,,,,,,,,,,,,,,,,,,,,,595945,001,2026-05-11_11h28.56.522,VAWM,,2026.1.3,60.01583217654687,2026-05-11 11h28.57.488074 -0500,
4,#008484,#0091DC,#007D68,47.54,20.63,66.22,#3D62C6,#925A82,#4A5496,44.24,20.08,29.56,sh,m,theta,1,9,T04,T04,T04,stimuli/T04_asha.wav,stimuli/T04_ama.wav,stimuli/T04_athetaa.wav,theta,d,p,4,35,T12,T12,T12,stimuli/T12_athetaa.wav,stimuli/T12_ada.wav,stimuli/T12_apa.wav,6,0,6,3,1.054,0,3,3,3,6,0,6,0,,,,,,,,,,,,,,,,,,,,,,,,,,,,,,,,,,,,,,,,,206.83874189999995,,,,,,,,,,,,,,,,,,,,,,,,,,,,,206.82592060000002,206.83874189999995,207.1389497,207.15558009999995,207.1556163666667,207.973972,208.15725740000005,208.40718900000002,no_response,11,stimuli/T12_ada.wav,#4A5496,6,3,208.40816940000002,208.42406159999996,,209.4085569,1,color2_L,audio2_H_file,1.054,,,,,,,,,,,,,,,,,,,,,,,,,,,,,,,,595945,001,2026-05-11_11h28.56.522,VAWM,,2026.1.3,60.01583217654687,2026-05-11 11h28.57.488074 -0500,
4,#008484,#0091DC,#007D68,47.54,20.63,66.22,#3D62C6,#925A82,#4A5496,44.24,20.08,29.56,sh,m,theta,1,9,T04,T04,T04,stimuli/T04_asha.wav,stimuli/T04_ama.wav,stimuli/T04_athetaa.wav,theta,d,p,4,35,T12,T12,T12,stimuli/T12_athetaa.wav,stimuli/T12_ada.wav,stimuli/T12_apa.wav,7,0,7,4,1.297,0,3,3,3,7,0,7,0,,,,,,,,,,,,,,,,,,,,,,,,,,,,,,,,,,,,,,,,,209.42516890000002,,,,,,,,,,,,,,,,,,,,,,,,,,,,,209.41195200000004,209.42516890000002,209.72524410000005,209.7420366,209.74191076666673,210.67604630000005,210.74275039999998,211.24322440000003,no_response,12,stimuli/T04_asha.wav,#007D68,7,4,211.24433309999995,211.25991710000005,,212.2441288,0,color1_L,audio1_target_file,1.297,,,,,,,,,,,,,,,,,,,,,,,,,,,,,,,,595945,001,2026-05-11_11h28.56.522,VAWM,,2026.1.3,60.01583217654687,2026-05-11 11h28.57.488074 -0500,
4,#008484,#0091DC,#007D68,47.54,20.63,66.22,#3D62C6,#925A82,#4A5496,44.24,20.08,29.56,sh,m,theta,1,9,T04,T04,T04,stimuli/T04_asha.wav,stimuli/T04_ama.wav,stimuli/T04_athetaa.wav,theta,d,p,4,35,T12,T12,T12,stimuli/T12_athetaa.wav,stimuli/T12_ada.wav,stimuli/T12_apa.wav,8,0,8,3,0.936,0,3,3,3,8,0,8,0,,,,,,,,,,,,,,,,,,,,,,,,,,,,,,,,,,,,,,,,,212.26063020000004,,,,,,,,,,,,,,,,,,,,,,,,,,,,,212.24603979999995,212.26063020000004,212.561018,212.57777350000003,212.57768466666667,213.49499219999996,213.57844739999996,213.71187429999998,no_response,4,stimuli/T04_athetaa.wav,#008484,8,3,213.71305010000003,213.72855449999997,,214.71278210000003,1,color1_target,audio1_L_file,0.936,,,,,,,,,,,,,,,,,,,,,,,,,,,,,,,,595945,001,2026-05-11_11h28.56.522,VAWM,,2026.1.3,60.01583217654687,2026-05-11 11h28.57.488074 -0500,
4,#008484,#0091DC,#007D68,47.54,20.63,66.22,#3D62C6,#925A82,#4A5496,44.24,20.08,29.56,sh,m,theta,1,9,T04,T04,T04,stimuli/T04_asha.wav,stimuli/T04_ama.wav,stimuli/T04_athetaa.wav,theta,d,p,4,35,T12,T12,T12,stimuli/T12_athetaa.wav,stimuli/T12_ada.wav,stimuli/T12_apa.wav,3,3,0,,,0,3,3,3,,,,,,,,,,,,,,,,,,,,,,,,,,,,,,,,,,,,,,,,,,,,,,,,,,,,,,,,,,,,,,,,,,,,,,,,,,,,,,,,,,,,,,,,,,,,,,,,,,,,,,,,,,,,,,,,,,,,,,,,,,,,,,,595945,001,2026-05-11_11h28.56.522,VAWM,,2026.1.3,60.01583217654687,2026-05-11 11h28.57.488074 -0500,
5,#8055B3,#FF98E0,#004DC9,41.37,28.99,67.44,#009E85,#00D882,#007C7A,46.5,23.63,55.75,t,eth,p,1,109,T07,T07,T07,stimuli/T07_ata.wav,stimuli/T07_aetha.wav,stimuli/T07_apa.wav,z,s,zh,1,242,T10,T10,T10,stimuli/T10_aza.wav,stimuli/T10_asa.wav,stimuli/T10_azha.wav,0,0,0,4,0.749,0,4,4,4,0,0,0,0,,,,,,,,,,,,,,,,,,,,,,,,,,,,,,,,,,,,,,,,,218.9328964,,,,,,,,,,,,,,,,,214.71739790000004,214.72933509999996,215.02957749999996,215.04630999999995,216.03038170000002,216.04694489999997,217.03126469999995,217.03118706666672,217.88210019999997,218.03210276666667,218.91630220000002,218.91634280000005,218.91851210000004,218.9328964,219.23326799999995,219.25000850000004,219.24993466666663,220.13377809999997,,220.20055739999998,no_response,1,stimuli/T10_aza.wav,#009E85,0,4,220.2006417,220.21730620000005,,221.2016761,1,color2_target,audio2_target_file,0.749,,,,,,,,,,,,,,,,,,,,,,,,,,,,,,,,595945,001,2026-05-11_11h28.56.522,VAWM,,2026.1.3,60.01583217654687,2026-05-11 11h28.57.488074 -0500,
5,#8055B3,#FF98E0,#004DC9,41.37,28.99,67.44,#009E85,#00D882,#007C7A,46.5,23.63,55.75,t,eth,p,1,109,T07,T07,T07,stimuli/T07_ata.wav,stimuli/T07_aetha.wav,stimuli/T07_apa.wav,z,s,zh,1,242,T10,T10,T10,stimuli/T10_aza.wav,stimuli/T10_asa.wav,stimuli/T10_azha.wav,1,0,1,3,0.52,0,4,4,4,1,0,1,0,,,,,,,,,,,,,,,,,,,,,,,,,,,,,,,,,,,,,,,,,221.21804610000004,,,,,,,,,,,,,,,,,,,,,,,,,,,,,221.20480410000005,221.21804610000004,221.51825310000004,221.53516890000003,221.53491976666672,,,222.25226440000006,no_response,15,stimuli/T10_azha.wav,#00D882,1,3,222.26316699999995,222.26905399999998,223.26991150000003,223.2531586,1,color2_H,audio2_L_file,0.52,,,,,,,,,,,,,,,,,,,,,,,,,,,,,,,,595945,001,2026-05-11_11h28.56.522,VAWM,,2026.1.3,60.01583217654687,2026-05-11 11h28.57.488074 -0500,
5,#8055B3,#FF98E0,#004DC9,41.37,28.99,67.44,#009E85,#00D882,#007C7A,46.5,23.63,55.75,t,eth,p,1,109,T07,T07,T07,stimuli/T07_ata.wav,stimuli/T07_aetha.wav,stimuli/T07_apa.wav,z,s,zh,1,242,T10,T10,T10,stimuli/T10_aza.wav,stimuli/T10_asa.wav,stimuli/T10_azha.wav,2,0,2,3,0.733,0,4,4,4,2,0,2,0,,,,,,,,,,,,,,,,,,,,,,,,,,,,,,,,,,,,,,,,,223.26991150000003,,,,,,,,,,,,,,,,,,,,,,,,,,,,,223.2550258,223.26991150000003,223.5700819,223.5866876,223.58674856666667,224.47077279999996,,224.52075090000005,no_response,7,stimuli/T10_aza.wav,#00D882,2,3,224.52080660000001,224.53745049999998,,225.52184999999997,1,color2_H,audio2_target_file,0.733,,,,,,,,,,,,,,,,,,,,,,,,,,,,,,,,595945,001,2026-05-11_11h28.56.522,VAWM,,2026.1.3,60.01583217654687,2026-05-11 11h28.57.488074 -0500,
5,#8055B3,#FF98E0,#004DC9,41.37,28.99,67.44,#009E85,#00D882,#007C7A,46.5,23.63,55.75,t,eth,p,1,109,T07,T07,T07,stimuli/T07_ata.wav,stimuli/T07_aetha.wav,stimuli/T07_apa.wav,z,s,zh,1,242,T10,T10,T10,stimuli/T10_aza.wav,stimuli/T10_asa.wav,stimuli/T10_azha.wav,3,0,3,3,0.309,0,4,4,4,3,0,3,0,,,,,,,,,,,,,,,,,,,,,,,,,,,,,,,,,,,,,,,,,225.53834859999995,,,,,,,,,,,,,,,,,,,,,,,,,,,,,225.52418690000002,225.53834859999995,225.83863069999995,225.8551698,225.85529736666663,,,226.37223819999997,no_response,15,stimuli/T10_azha.wav,#00D882,3,3,226.38151670000002,226.38913520000006,227.38980719999995,227.3731735,1,color2_H,audio2_L_file,0.309,,,,,,,,,,,,,,,,,,,,,,,,,,,,,,,,595945,001,2026-05-11_11h28.56.522,VAWM,,2026.1.3,60.01583217654687,2026-05-11 11h28.57.488074 -0500,
5,#8055B3,#FF98E0,#004DC9,41.37,28.99,67.44,#009E85,#00D882,#007C7A,46.5,23.63,55.75,t,eth,p,1,109,T07,T07,T07,stimuli/T07_ata.wav,stimuli/T07_aetha.wav,stimuli/T07_apa.wav,z,s,zh,1,242,T10,T10,T10,stimuli/T10_aza.wav,stimuli/T10_asa.wav,stimuli/T10_azha.wav,4,0,4,4,0.528,0,4,4,4,4,0,4,0,,,,,,,,,,,,,,,,,,,,,,,,,,,,,,,,,,,,,,,,,227.38980719999995,,,,,,,,,,,,,,,,,,,,,,,,,,,,,227.37521809999998,227.38980719999995,227.68988809999996,227.70672950000005,227.70655476666664,,,228.44069860000002,no_response,1,stimuli/T10_aza.wav,#009E85,4,4,228.45301719999998,228.45753190000005,229.45820219999996,229.44169399999998,1,color2_target,audio2_target_file,0.528,,,,,,,,,,,,,,,,,,,,,,,,,,,,,,,,595945,001,2026-05-11_11h28.56.522,VAWM,,2026.1.3,60.01583217654687,2026-05-11 11h28.57.488074 -0500,
5,#8055B3,#FF98E0,#004DC9,41.37,28.99,67.44,#009E85,#00D882,#007C7A,46.5,23.63,55.75,t,eth,p,1,109,T07,T07,T07,stimuli/T07_ata.wav,stimuli/T07_aetha.wav,stimuli/T07_apa.wav,z,s,zh,1,242,T10,T10,T10,stimuli/T10_aza.wav,stimuli/T10_asa.wav,stimuli/T10_azha.wav,5,0,5,4,0.465,0,4,4,4,5,0,5,0,,,,,,,,,,,,,,,,,,,,,,,,,,,,,,,,,,,,,,,,,229.45820219999996,,,,,,,,,,,,,,,,,,,,,,,,,,,,,229.44391459999997,229.45820219999996,229.75863330000004,229.77535620000003,229.77529996666672,,,230.44242340000005,no_response,5,stimuli/T10_azha.wav,#009E85,5,4,230.45393190000004,230.45881799999995,231.4597966,231.44320849999997,0,color2_target,audio2_L_file,0.465,,,,,,,,,,,,,,,,,,,,,,,,,,,,,,,,595945,001,2026-05-11_11h28.56.522,VAWM,,2026.1.3,60.01583217654687,2026-05-11 11h28.57.488074 -0500,
5,#8055B3,#FF98E0,#004DC9,41.37,28.99,67.44,#009E85,#00D882,#007C7A,46.5,23.63,55.75,t,eth,p,1,109,T07,T07,T07,stimuli/T07_ata.wav,stimuli/T07_aetha.wav,stimuli/T07_apa.wav,z,s,zh,1,242,T10,T10,T10,stimuli/T10_aza.wav,stimuli/T10_asa.wav,stimuli/T10_azha.wav,6,0,6,3,0.664,0,4,4,4,6,0,6,0,,,,,,,,,,,,,,,,,,,,,,,,,,,,,,,,,,,,,,,,,231.4597966,,,,,,,,,,,,,,,,,,,,,,,,,,,,,231.44558189999998,231.4597966,231.759999,231.77675150000005,231.77666566666667,,,232.6441688,no_response,15,stimuli/T10_azha.wav,#00D882,6,3,232.64560800000004,232.66069830000004,,233.64489549999996,1,color2_H,audio2_L_file,0.664,,,,,,,,,,,,,,,,,,,,,,,,,,,,,,,,595945,001,2026-05-11_11h28.56.522,VAWM,,2026.1.3,60.01583217654687,2026-05-11 11h28.57.488074 -0500,
5,#8055B3,#FF98E0,#004DC9,41.37,28.99,67.44,#009E85,#00D882,#007C7A,46.5,23.63,55.75,t,eth,p,1,109,T07,T07,T07,stimuli/T07_ata.wav,stimuli/T07_aetha.wav,stimuli/T07_apa.wav,z,s,zh,1,242,T10,T10,T10,stimuli/T10_aza.wav,stimuli/T10_asa.wav,stimuli/T10_azha.wav,7,0,7,4,1.183,0,4,4,4,7,0,7,0,,,,,,,,,,,,,,,,,,,,,,,,,,,,,,,,,,,,,,,,,233.66167910000001,,,,,,,,,,,,,,,,,,,,,,,,,,,,,233.64681129999997,233.66167910000001,233.9618163,233.9786825,233.9784829666667,234.8460602,234.97949989999995,235.36319290000006,no_response,2,stimuli/T07_aetha.wav,#8055B3,7,4,235.364378,235.37972460000003,,236.36386270000003,0,color1_target,audio1_H_file,1.183,,,,,,,,,,,,,,,,,,,,,,,,,,,,,,,,595945,001,2026-05-11_11h28.56.522,VAWM,,2026.1.3,60.01583217654687,2026-05-11 11h28.57.488074 -0500,
5,#8055B3,#FF98E0,#004DC9,41.37,28.99,67.44,#009E85,#00D882,#007C7A,46.5,23.63,55.75,t,eth,p,1,109,T07,T07,T07,stimuli/T07_ata.wav,stimuli/T07_aetha.wav,stimuli/T07_apa.wav,z,s,zh,1,242,T10,T10,T10,stimuli/T10_aza.wav,stimuli/T10_asa.wav,stimuli/T10_azha.wav,8,0,8,3,0.591,0,4,4,4,8,0,8,0,,,,,,,,,,,,,,,,,,,,,,,,,,,,,,,,,,,,,,,,,236.38065319999998,,,,,,,,,,,,,,,,,,,,,,,,,,,,,236.36590079999996,236.38065319999998,236.68074490000004,236.69737480000003,236.69741156666672,,,237.48150480000004,no_response,12,stimuli/T07_ata.wav,#004DC9,8,3,237.5028178,237.51506440000003,238.5157408,238.4991169,1,color1_L,audio1_target_file,0.591,,,,,,,,,,,,,,,,,,,,,,,,,,,,,,,,595945,001,2026-05-11_11h28.56.522,VAWM,,2026.1.3,60.01583217654687,2026-05-11 11h28.57.488074 -0500,
5,#8055B3,#FF98E0,#004DC9,41.37,28.99,67.44,#009E85,#00D882,#007C7A,46.5,23.63,55.75,t,eth,p,1,109,T07,T07,T07,stimuli/T07_ata.wav,stimuli/T07_aetha.wav,stimuli/T07_apa.wav,z,s,zh,1,242,T10,T10,T10,stimuli/T10_aza.wav,stimuli/T10_asa.wav,stimuli/T10_azha.wav,4,4,0,,,0,4,4,4,,,,,,,,,,,,,,,,,,,,,,,,,,,,,,,,,,,,,,,,,,,,,,,,,,,,,,,,,,,,,,,,,,,,,,,,,,,,,,,,,,,,,,,,,,,,,,,,,,,,,,,,,,,,,,,,,,,,,,,,,,,,,,,595945,001,2026-05-11_11h28.56.522,VAWM,,2026.1.3,60.01583217654687,2026-05-11 11h28.57.488074 -0500,
,,,,,,,,,,,,,,,,,,,,,,,,,,,,,,,,,,,,,,,,,,,,,,,,,,,,,,,,,,,,,,,,,,,,,,,,,,,,,,,,,,,,,,,,,,,,,,,,,,,,,,,,,,,,,,,,,,,,,,,,,,,,,,,,,,,,,,,,,,,238.50015299999995,238.5157408,238.5157408,281.434664,space,42.90179679999994,None,,,,,,,,,,,,,,,,,,,,,,,,,595945,001,2026-05-11_11h28.56.522,VAWM,,2026.1.3,60.01583217654687,2026-05-11 11h28.57.488074 -0500,
17,#007FB0,#00877D,#005A86,36.2,20.7,39.71,#2474C7,#0079B6,#87B6FF,38.46,26.4,51.38,p,b,k,1,207,T01,T01,T01,stimuli/T01_apa.wav,stimuli/T01_aba.wav,stimuli/T01_aka.wav,s,n,f,1,29,T02,T02,T02,stimuli/T02_asa.wav,stimuli/T02_ana.wav,stimuli/T02_afa.wav,0,0,0,4,0.382,,,,,,,,,0,0,0,16,0,0,0,0,,,,,,,,,,,,,,,,,,,,,,,,,,,,,,,,,285.7213818,,,,,,,,,,,,,,,,,281.47108790000004,281.4845653,281.78472739999995,281.8014588,282.78580039999997,282.802238,283.7863943,283.78631026666665,284.63723519999996,284.77049726666667,285.7047837,285.7048201,285.70788589999995,285.7213818,286.0216047,286.03827160000003,286.03827136666666,,,286.6221755,no_response,1,stimuli/T02_asa.wav,#2474C7,0,,,,,,1,,,,,,,,,,,4,0.382,,,,,,,,,,,,,,,,,,,,,,,595945,001,2026-05-11_11h28.56.522,VAWM,,2026.1.3,60.01583217654687,2026-05-11 11h28.57.488074 -0500,
17,#007FB0,#00877D,#005A86,36.2,20.7,39.71,#2474C7,#0079B6,#87B6FF,38.46,26.4,51.38,p,b,k,1,207,T01,T01,T01,stimuli/T01_apa.wav,stimuli/T01_aba.wav,stimuli/T01_aka.wav,s,n,f,1,29,T02,T02,T02,stimuli/T02_asa.wav,stimuli/T02_ana.wav,stimuli/T02_afa.wav,1,0,1,3,0.643,,,,,,,,,0,0,0,16,1,0,1,0,,,,,,,,,,,,,,,,,,,,,,,,,,,,,,,,,286.65543920000005,,,,,,,,,,,,,,,,,,,,,,,,,,,,,286.6408371,286.65543920000005,286.9558048,286.9725794,286.97247146666666,,,287.8063485,no_response,17,stimuli/T02_afa.wav,#87B6FF,1,,,,,,1,,,,,,,,,,,3,0.643,,,,,,,,,,,,,,,,,,,,,,,595945,001,2026-05-11_11h28.56.522,VAWM,,2026.1.3,60.01583217654687,2026-05-11 11h28.57.488074 -0500,
17,#007FB0,#00877D,#005A86,36.2,20.7,39.71,#2474C7,#0079B6,#87B6FF,38.46,26.4,51.38,p,b,k,1,207,T01,T01,T01,stimuli/T01_apa.wav,stimuli/T01_aba.wav,stimuli/T01_aka.wav,s,n,f,1,29,T02,T02,T02,stimuli/T02_asa.wav,stimuli/T02_ana.wav,stimuli/T02_afa.wav,2,0,2,4,0.465,,,,,,,,,0,0,0,16,2,0,2,0,,,,,,,,,,,,,,,,,,,,,,,,,,,,,,,,,287.839753,,,,,,,,,,,,,,,,,,,,,,,,,,,,,287.83114539999997,287.839753,288.1401217,288.15682189999995,288.15678836666666,,,288.80733150000003,no_response,4,stimuli/T01_aka.wav,#007FB0,2,,,,,,0,,,,,,,,,,,4,0.465,,,,,,,,,,,,,,,,,,,,,,,595945,001,2026-05-11_11h28.56.522,VAWM,,2026.1.3,60.01583217654687,2026-05-11 11h28.57.488074 -0500,
17,#007FB0,#00877D,#005A86,36.2,20.7,39.71,#2474C7,#0079B6,#87B6FF,38.46,26.4,51.38,p,b,k,1,207,T01,T01,T01,stimuli/T01_apa.wav,stimuli/T01_aba.wav,stimuli/T01_aka.wav,s,n,f,1,29,T02,T02,T02,stimuli/T02_asa.wav,stimuli/T02_ana.wav,stimuli/T02_afa.wav,3,0,3,4,1.006,,,,,,,,,0,0,0,16,3,0,3,0,,,,,,,,,,,,,,,,,,,,,,,,,,,,,,,,,288.84055920000003,,,,,,,,,,,,,,,,,,,,,,,,,,,,,288.8236782,288.84055920000003,289.1407769,289.1407769,289.1407412666666,289.99155870000004,290.14166,290.3419165,no_response,14,stimuli/T01_aka.wav,#00877D,3,,,,,,0,,,,,,,,,,,4,1.006,,,,,,,,,,,,,,,,,,,,,,,595945,001,2026-05-11_11h28.56.522,VAWM,,2026.1.3,60.01583217654687,2026-05-11 11h28.57.488074 -0500,
17,#007FB0,#00877D,#005A86,36.2,20.7,39.71,#2474C7,#0079B6,#87B6FF,38.46,26.4,51.38,p,b,k,1,207,T01,T01,T01,stimuli/T01_apa.wav,stimuli/T01_aba.wav,stimuli/T01_aka.wav,s,n,f,1,29,T02,T02,T02,stimuli/T02_asa.wav,stimuli/T02_ana.wav,stimuli/T02_afa.wav,4,0,4,3,0.792,,,,,,,,,0,0,0,16,4,0,4,0,,,,,,,,,,,,,,,,,,,,,,,,,,,,,,,,,290.358484,,,,,,,,,,,,,,,,,,,,,,,,,,,,,290.35029269999995,290.358484,290.6586761,290.67540199999996,290.67534276666663,291.49269790000005,,291.65957089999995,no_response,2,stimuli/T01_aba.wav,#007FB0,4,,,,,,1,,,,,,,,,,,3,0.792,,,,,,,,,,,,,,,,,,,,,,,595945,001,2026-05-11_11h28.56.522,VAWM,,2026.1.3,60.01583217654687,2026-05-11 11h28.57.488074 -0500,
17,#007FB0,#00877D,#005A86,36.2,20.7,39.71,#2474C7,#0079B6,#87B6FF,38.46,26.4,51.38,p,b,k,1,207,T01,T01,T01,stimuli/T01_apa.wav,stimuli/T01_aba.wav,stimuli/T01_aka.wav,s,n,f,1,29,T02,T02,T02,stimuli/T02_asa.wav,stimuli/T02_ana.wav,stimuli/T02_afa.wav,5,0,5,4,0.79,,,,,,,,,0,0,0,16,5,0,5,0,,,,,,,,,,,,,,,,,,,,,,,,,,,,,,,,,291.67618189999996,,,,,,,,,,,,,,,,,,,,,,,,,,,,,291.6627085,291.67618189999996,291.97646929999996,291.99303069999996,291.9931359666666,292.9272115,,292.9773923,no_response,1,stimuli/T02_asa.wav,#2474C7,5,,,,,,1,,,,,,,,,,,4,0.79,,,,,,,,,,,,,,,,,,,,,,,595945,001,2026-05-11_11h28.56.522,VAWM,,2026.1.3,60.01583217654687,2026-05-11 11h28.57.488074 -0500,
17,#007FB0,#00877D,#005A86,36.2,20.7,39.71,#2474C7,#0079B6,#87B6FF,38.46,26.4,51.38,p,b,k,1,207,T01,T01,T01,stimuli/T01_apa.wav,stimuli/T01_aba.wav,stimuli/T01_aka.wav,s,n,f,1,29,T02,T02,T02,stimuli/T02_asa.wav,stimuli/T02_ana.wav,stimuli/T02_afa.wav,6,0,6,3,0.548,,,,,,,,,0,0,0,16,6,0,6,0,,,,,,,,,,,,,,,,,,,,,,,,,,,,,,,,,292.99393080000004,,,,,,,,,,,,,,,,,,,,,,,,,,,,,292.9796622,292.99393080000004,293.2944602,293.31084969999995,293.31112686666665,,,294.06145630000003,no_response,16,stimuli/T01_aka.wav,#005A86,6,,,,,,1,,,,,,,,,,,3,0.548,,,,,,,,,,,,,,,,,,,,,,,595945,001,2026-05-11_11h28.56.522,VAWM,,2026.1.3,60.01583217654687,2026-05-11 11h28.57.488074 -0500,
17,#007FB0,#00877D,#005A86,36.2,20.7,39.71,#2474C7,#0079B6,#87B6FF,38.46,26.4,51.38,p,b,k,1,207,T01,T01,T01,stimuli/T01_apa.wav,stimuli/T01_aba.wav,stimuli/T01_aka.wav,s,n,f,1,29,T02,T02,T02,stimuli/T02_asa.wav,stimuli/T02_ana.wav,stimuli/T02_afa.wav,7,0,7,3,0.942,,,,,,,,,0,0,0,16,7,0,7,0,,,,,,,,,,,,,,,,,,,,,,,,,,,,,,,,,294.09499889999995,,,,,,,,,,,,,,,,,,,,,,,,,,,,,294.07669910000004,294.09499889999995,294.39493319999997,294.39493319999997,294.3952261666667,295.2458789,295.3959308,295.5462751,no_response,12,stimuli/T01_apa.wav,#005A86,7,,,,,,1,,,,,,,,,,,3,0.942,,,,,,,,,,,,,,,,,,,,,,,595945,001,2026-05-11_11h28.56.522,VAWM,,2026.1.3,60.01583217654687,2026-05-11 11h28.57.488074 -0500,
17,#007FB0,#00877D,#005A86,36.2,20.7,39.71,#2474C7,#0079B6,#87B6FF,38.46,26.4,51.38,p,b,k,1,207,T01,T01,T01,stimuli/T01_apa.wav,stimuli/T01_aba.wav,stimuli/T01_aka.wav,s,n,f,1,29,T02,T02,T02,stimuli/T02_asa.wav,stimuli/T02_ana.wav,stimuli/T02_afa.wav,8,0,8,3,0.695,,,,,,,,,0,0,0,16,8,0,8,0,,,,,,,,,,,,,,,,,,,,,,,,,,,,,,,,,295.56300050000004,,,,,,,,,,,,,,,,,,,,,,,,,,,,,295.55008840000005,295.56300050000004,295.86308429999997,295.879818,295.8797509666666,,,296.7638319,no_response,7,stimuli/T02_asa.wav,#0079B6,8,,,,,,1,,,,,,,,,,,3,0.695,,,,,,,,,,,,,,,,,,,,,,,595945,001,2026-05-11_11h28.56.522,VAWM,,2026.1.3,60.01583217654687,2026-05-11 11h28.57.488074 -0500,
17,#007FB0,#00877D,#005A86,36.2,20.7,39.71,#2474C7,#0079B6,#87B6FF,38.46,26.4,51.38,p,b,k,1,207,T01,T01,T01,stimuli/T01_apa.wav,stimuli/T01_aba.wav,stimuli/T01_aka.wav,s,n,f,1,29,T02,T02,T02,stimuli/T02_asa.wav,stimuli/T02_ana.wav,stimuli/T02_afa.wav,0,0,0,,,,,,,,,,,0,0,0,16,,,,,,,,,,,,,,,,,,,,,,,,,,,,,,,,,,,,,,,,,,,,,,,,,,,,,,,,,,,,,,,,,,,,,,,,,,,,,,,,,,,,,,,,,,,,,,,,,,,,,,,,,,,,,,,,,,,,,,,595945,001,2026-05-11_11h28.56.522,VAWM,,2026.1.3,60.01583217654687,2026-05-11 11h28.57.488074 -0500,
3,#BA4D74,#A577B8,#F08992,33.63,24.6,42.47,#0082C0,#00A5BD,#015877,27.9,25.68,34.84,f,sh,p,1,27,T03,T03,T03,stimuli/T03_afa.wav,stimuli/T03_asha.wav,stimuli/T03_apa.wav,d,b,eth,12,33,T04,T04,T04,stimuli/T04_ada.wav,stimuli/T04_aba.wav,stimuli/T04_aetha.wav,0,0,0,3,0.421,,,,,,,,,0,1,1,2,0,0,0,0,,,,,,,,,,,,,,,,,,,,,,,,,,,,,,,,,300.95027289999996,,,,,,,,,,,,,,,,,296.8062142,296.8137802,297.1140521,297.1305245,298.1147618,298.1315594,299.1159013,299.11603106666666,300.03314109999997,300.1165272666667,300.93411100000003,300.93425179999997,300.9459335,300.95027289999996,301.25056370000004,301.26762729999996,301.2672303666667,,,301.8847111,no_response,10,stimuli/T03_asha.wav,#F08992,0,,,,,,1,,,,,,,,,,,3,0.421,,,,,,,,,,,,,,,,,,,,,,,595945,001,2026-05-11_11h28.56.522,VAWM,,2026.1.3,60.01583217654687,2026-05-11 11h28.57.488074 -0500,
3,#BA4D74,#A577B8,#F08992,33.63,24.6,42.47,#0082C0,#00A5BD,#015877,27.9,25.68,34.84,f,sh,p,1,27,T03,T03,T03,stimuli/T03_afa.wav,stimuli/T03_asha.wav,stimuli/T03_apa.wav,d,b,eth,12,33,T04,T04,T04,stimuli/T04_ada.wav,stimuli/T04_aba.wav,stimuli/T04_aetha.wav,1,0,1,4,1.135,,,,,,,,,0,1,1,2,1,0,1,0,,,,,,,,,,,,,,,,,,,,,,,,,,,,,,,,,301.91807559999995,,,,,,,,,,,,,,,,,,,,,,,,,,,,,301.9124818,301.91807559999995,302.21842160000006,302.2348939,302.2350882666667,303.0524448,303.2357995,303.5695522,no_response,3,stimuli/T04_aba.wav,#0082C0,1,,,,,,0,,,,,,,,,,,4,1.135,,,,,,,,,,,,,,,,,,,,,,,595945,001,2026-05-11_11h28.56.522,VAWM,,2026.1.3,60.01583217654687,2026-05-11 11h28.57.488074 -0500,
3,#BA4D74,#A577B8,#F08992,33.63,24.6,42.47,#0082C0,#00A5BD,#015877,27.9,25.68,34.84,f,sh,p,1,27,T03,T03,T03,stimuli/T03_afa.wav,stimuli/T03_asha.wav,stimuli/T03_apa.wav,d,b,eth,12,33,T04,T04,T04,stimuli/T04_ada.wav,stimuli/T04_aba.wav,stimuli/T04_aetha.wav,2,0,2,3,0.787,,,,,,,,,0,1,1,2,2,0,2,0,,,,,,,,,,,,,,,,,,,,,,,,,,,,,,,,,303.58622149999997,,,,,,,,,,,,,,,,,,,,,,,,,,,,,303.5723884,303.58622149999997,303.8864591,303.90315480000004,303.9031257666667,304.83707430000004,,304.8872497,no_response,0,stimuli/T03_afa.wav,#BA4D74,2,,,,,,0,,,,,,,,,,,3,0.787,,,,,,,,,,,,,,,,,,,,,,,595945,001,2026-05-11_11h28.56.522,VAWM,,2026.1.3,60.01583217654687,2026-05-11 11h28.57.488074 -0500,
3,#BA4D74,#A577B8,#F08992,33.63,24.6,42.47,#0082C0,#00A5BD,#015877,27.9,25.68,34.84,f,sh,p,1,27,T03,T03,T03,stimuli/T03_afa.wav,stimuli/T03_asha.wav,stimuli/T03_apa.wav,d,b,eth,12,33,T04,T04,T04,stimuli/T04_ada.wav,stimuli/T04_aba.wav,stimuli/T04_aetha.wav,3,0,3,3,0.539,,,,,,,,,0,1,1,2,3,0,3,0,,,,,,,,,,,,,,,,,,,,,,,,,,,,,,,,,304.9038438,,,,,,,,,,,,,,,,,,,,,,,,,,,,,304.8901085,304.9038438,305.20413929999995,305.22045330000003,305.2208059666666,,,305.95474920000004,no_response,6,stimuli/T03_afa.wav,#A577B8,3,,,,,,1,,,,,,,,,,,3,0.539,,,,,,,,,,,,,,,,,,,,,,,595945,001,2026-05-11_11h28.56.522,VAWM,,2026.1.3,60.01583217654687,2026-05-11 11h28.57.488074 -0500,
3,#BA4D74,#A577B8,#F08992,33.63,24.6,42.47,#0082C0,#00A5BD,#015877,27.9,25.68,34.84,f,sh,p,1,27,T03,T03,T03,stimuli/T03_afa.wav,stimuli/T03_asha.wav,stimuli/T03_apa.wav,d,b,eth,12,33,T04,T04,T04,stimuli/T04_ada.wav,stimuli/T04_aba.wav,stimuli/T04_aetha.wav,4,0,4,4,0.803,,,,,,,,,0,1,1,2,4,0,4,0,,,,,,,,,,,,,,,,,,,,,,,,,,,,,,,,,305.9880193,,,,,,,,,,,,,,,,,,,,,,,,,,,,,305.97279100000003,305.9880193,306.28816129999996,306.3048421,306.3048279666666,307.18923800000005,307.3057411,307.30577619999997,no_response,5,stimuli/T04_aetha.wav,#0082C0,4,,,,,,0,,,,,,,,,,,4,0.803,,,,,,,,,,,,,,,,,,,,,,,595945,001,2026-05-11_11h28.56.522,VAWM,,2026.1.3,60.01583217654687,2026-05-11 11h28.57.488074 -0500,
3,#BA4D74,#A577B8,#F08992,33.63,24.6,42.47,#0082C0,#00A5BD,#015877,27.9,25.68,34.84,f,sh,p,1,27,T03,T03,T03,stimuli/T03_afa.wav,stimuli/T03_asha.wav,stimuli/T03_apa.wav,d,b,eth,12,33,T04,T04,T04,stimuli/T04_ada.wav,stimuli/T04_aba.wav,stimuli/T04_aetha.wav,5,0,5,3,0.595,,,,,,,,,0,1,1,2,5,0,5,0,,,,,,,,,,,,,,,,,,,,,,,,,,,,,,,,,307.32261619999997,,,,,,,,,,,,,,,,,,,,,,,,,,,,,307.30863150000005,307.32261619999997,307.62269030000004,307.6391473,307.6393569666667,,,308.44022029999996,no_response,12,stimuli/T03_afa.wav,#F08992,5,,,,,,1,,,,,,,,,,,3,0.595,,,,,,,,,,,,,,,,,,,,,,,595945,001,2026-05-11_11h28.56.522,VAWM,,2026.1.3,60.01583217654687,2026-05-11 11h28.57.488074 -0500,
3,#BA4D74,#A577B8,#F08992,33.63,24.6,42.47,#0082C0,#00A5BD,#015877,27.9,25.68,34.84,f,sh,p,1,27,T03,T03,T03,stimuli/T03_afa.wav,stimuli/T03_asha.wav,stimuli/T03_apa.wav,d,b,eth,12,33,T04,T04,T04,stimuli/T04_ada.wav,stimuli/T04_aba.wav,stimuli/T04_aetha.wav,6,0,6,3,0.49,,,,,,,,,0,1,1,2,6,0,6,0,,,,,,,,,,,,,,,,,,,,,,,,,,,,,,,,,308.4734505,,,,,,,,,,,,,,,,,,,,,,,,,,,,,308.46434209999995,308.4734505,308.77371960000005,308.7901306,308.7903862666667,,,309.4742218,no_response,16,stimuli/T03_apa.wav,#F08992,6,,,,,,1,,,,,,,,,,,3,0.49,,,,,,,,,,,,,,,,,,,,,,,595945,001,2026-05-11_11h28.56.522,VAWM,,2026.1.3,60.01583217654687,2026-05-11 11h28.57.488074 -0500,
3,#BA4D74,#A577B8,#F08992,33.63,24.6,42.47,#0082C0,#00A5BD,#015877,27.9,25.68,34.84,f,sh,p,1,27,T03,T03,T03,stimuli/T03_afa.wav,stimuli/T03_asha.wav,stimuli/T03_apa.wav,d,b,eth,12,33,T04,T04,T04,stimuli/T04_ada.wav,stimuli/T04_aba.wav,stimuli/T04_aetha.wav,7,0,7,4,0.718,,,,,,,,,0,1,1,2,7,0,7,0,,,,,,,,,,,,,,,,,,,,,,,,,,,,,,,,,309.49096699999996,,,,,,,,,,,,,,,,,,,,,,,,,,,,,309.48665300000005,309.49096699999996,309.7914055,309.8078829,309.80807216666665,310.6252574,,310.7254382,no_response,1,stimuli/T04_ada.wav,#0082C0,7,,,,,,1,,,,,,,,,,,4,0.718,,,,,,,,,,,,,,,,,,,,,,,595945,001,2026-05-11_11h28.56.522,VAWM,,2026.1.3,60.01583217654687,2026-05-11 11h28.57.488074 -0500,
3,#BA4D74,#A577B8,#F08992,33.63,24.6,42.47,#0082C0,#00A5BD,#015877,27.9,25.68,34.84,f,sh,p,1,27,T03,T03,T03,stimuli/T03_afa.wav,stimuli/T03_asha.wav,stimuli/T03_apa.wav,d,b,eth,12,33,T04,T04,T04,stimuli/T04_ada.wav,stimuli/T04_aba.wav,stimuli/T04_aetha.wav,8,0,8,3,0.582,,,,,,,,,0,1,1,2,8,0,8,0,,,,,,,,,,,,,,,,,,,,,,,,,,,,,,,,,310.74210519999997,,,,,,,,,,,,,,,,,,,,,,,,,,,,,310.72800370000004,310.74210519999997,311.04225440000005,311.0588636,311.0589210666667,,,311.8429357,no_response,9,stimuli/T04_aba.wav,#00A5BD,8,,,,,,1,,,,,,,,,,,3,0.582,,,,,,,,,,,,,,,,,,,,,,,595945,001,2026-05-11_11h28.56.522,VAWM,,2026.1.3,60.01583217654687,2026-05-11 11h28.57.488074 -0500,
3,#BA4D74,#A577B8,#F08992,33.63,24.6,42.47,#0082C0,#00A5BD,#015877,27.9,25.68,34.84,f,sh,p,1,27,T03,T03,T03,stimuli/T03_afa.wav,stimuli/T03_asha.wav,stimuli/T03_apa.wav,d,b,eth,12,33,T04,T04,T04,stimuli/T04_ada.wav,stimuli/T04_aba.wav,stimuli/T04_aetha.wav,1,1,0,,,,,,,,,,,0,1,1,2,,,,,,,,,,,,,,,,,,,,,,,,,,,,,,,,,,,,,,,,,,,,,,,,,,,,,,,,,,,,,,,,,,,,,,,,,,,,,,,,,,,,,,,,,,,,,,,,,,,,,,,,,,,,,,,,,,,,,,,595945,001,2026-05-11_11h28.56.522,VAWM,,2026.1.3,60.01583217654687,2026-05-11 11h28.57.488074 -0500,
7,#00A079,#388A82,#008B46,29.39,21.02,46.23,#876523,#334700,#CAA34B,34.27,25.86,48.82,s,n,sh,1,57,T12,T12,T12,stimuli/T12_asa.wav,stimuli/T12_ana.wav,stimuli/T12_asha.wav,p,b,k,1,207,T04,T04,T04,stimuli/T04_apa.wav,stimuli/T04_aba.wav,stimuli/T04_aka.wav,0,0,0,4,0.488,,,,,,,,,0,2,2,6,0,0,0,0,,,,,,,,,,,,,,,,,,,,,,,,,,,,,,,,,316.04653410000003,,,,,,,,,,,,,,,,,311.87171909999995,311.87639360000003,312.17648069999996,312.1932293,313.1775183,313.1941905,314.1783027,314.1783154666666,315.1121107,315.1791282666667,316.029772,316.0298053,316.03228060000004,316.04653410000003,316.34655929999997,316.3632724,316.3632259666666,,,317.04737609999995,no_response,3,stimuli/T04_aba.wav,#876523,0,,,,,,0,,,,,,,,,,,4,0.488,,,,,,,,,,,,,,,,,,,,,,,595945,001,2026-05-11_11h28.56.522,VAWM,,2026.1.3,60.01583217654687,2026-05-11 11h28.57.488074 -0500,
7,#00A079,#388A82,#008B46,29.39,21.02,46.23,#876523,#334700,#CAA34B,34.27,25.86,48.82,s,n,sh,1,57,T12,T12,T12,stimuli/T12_asa.wav,stimuli/T12_ana.wav,stimuli/T12_asha.wav,p,b,k,1,207,T04,T04,T04,stimuli/T04_apa.wav,stimuli/T04_aba.wav,stimuli/T04_aka.wav,1,0,1,3,0.392,,,,,,,,,0,2,2,6,1,0,1,0,,,,,,,,,,,,,,,,,,,,,,,,,,,,,,,,,317.0807131,,,,,,,,,,,,,,,,,,,,,,,,,,,,,317.06947449999996,317.0807131,317.38079949999997,317.39732330000004,317.3974661666666,,,317.98132869999995,no_response,16,stimuli/T12_asha.wav,#008B46,1,,,,,,1,,,,,,,,,,,3,0.392,,,,,,,,,,,,,,,,,,,,,,,595945,001,2026-05-11_11h28.56.522,VAWM,,2026.1.3,60.01583217654687,2026-05-11 11h28.57.488074 -0500,
7,#00A079,#388A82,#008B46,29.39,21.02,46.23,#876523,#334700,#CAA34B,34.27,25.86,48.82,s,n,sh,1,57,T12,T12,T12,stimuli/T12_asa.wav,stimuli/T12_ana.wav,stimuli/T12_asha.wav,p,b,k,1,207,T04,T04,T04,stimuli/T04_apa.wav,stimuli/T04_aba.wav,stimuli/T04_aka.wav,2,0,2,3,0.553,,,,,,,,,0,2,2,6,2,0,2,0,,,,,,,,,,,,,,,,,,,,,,,,,,,,,,,,,318.0146806,,,,,,,,,,,,,,,,,,,,,,,,,,,,,318.00303540000004,318.0146806,318.3148919,318.3316201,318.3315585666667,,,319.0820404,no_response,17,stimuli/T04_aka.wav,#CAA34B,2,,,,,,1,,,,,,,,,,,3,0.553,,,,,,,,,,,,,,,,,,,,,,,595945,001,2026-05-11_11h28.56.522,VAWM,,2026.1.3,60.01583217654687,2026-05-11 11h28.57.488074 -0500,
7,#00A079,#388A82,#008B46,29.39,21.02,46.23,#876523,#334700,#CAA34B,34.27,25.86,48.82,s,n,sh,1,57,T12,T12,T12,stimuli/T12_asa.wav,stimuli/T12_ana.wav,stimuli/T12_asha.wav,p,b,k,1,207,T04,T04,T04,stimuli/T04_apa.wav,stimuli/T04_aba.wav,stimuli/T04_aka.wav,3,0,3,4,0.382,,,,,,,,,0,2,2,6,3,0,3,0,,,,,,,,,,,,,,,,,,,,,,,,,,,,,,,,,319.0987768,,,,,,,,,,,,,,,,,,,,,,,,,,,,,319.0951953,319.0987768,319.39929470000004,319.4158138,319.4159613666667,,,319.9997125,no_response,1,stimuli/T04_apa.wav,#876523,3,,,,,,1,,,,,,,,,,,4,0.382,,,,,,,,,,,,,,,,,,,,,,,595945,001,2026-05-11_11h28.56.522,VAWM,,2026.1.3,60.01583217654687,2026-05-11 11h28.57.488074 -0500,
7,#00A079,#388A82,#008B46,29.39,21.02,46.23,#876523,#334700,#CAA34B,34.27,25.86,48.82,s,n,sh,1,57,T12,T12,T12,stimuli/T12_asa.wav,stimuli/T12_ana.wav,stimuli/T12_asha.wav,p,b,k,1,207,T04,T04,T04,stimuli/T04_apa.wav,stimuli/T04_aba.wav,stimuli/T04_aka.wav,4,0,4,4,0.925,,,,,,,,,0,2,2,6,4,0,4,0,,,,,,,,,,,,,,,,,,,,,,,,,,,,,,,,,320.03300790000003,,,,,,,,,,,,,,,,,,,,,,,,,,,,,320.0135596,320.03300790000003,320.3331349,320.3331349,320.3331904666667,321.18379130000005,321.33374719999995,321.450832,no_response,1,stimuli/T04_apa.wav,#876523,4,,,,,,1,,,,,,,,,,,4,0.925,,,,,,,,,,,,,,,,,,,,,,,595945,001,2026-05-11_11h28.56.522,VAWM,,2026.1.3,60.01583217654687,2026-05-11 11h28.57.488074 -0500,
7,#00A079,#388A82,#008B46,29.39,21.02,46.23,#876523,#334700,#CAA34B,34.27,25.86,48.82,s,n,sh,1,57,T12,T12,T12,stimuli/T12_asa.wav,stimuli/T12_ana.wav,stimuli/T12_asha.wav,p,b,k,1,207,T04,T04,T04,stimuli/T04_apa.wav,stimuli/T04_aba.wav,stimuli/T04_aka.wav,5,0,5,4,1.205,,,,,,,,,0,2,2,6,5,0,5,0,,,,,,,,,,,,,,,,,,,,,,,,,,,,,,,,,321.4676197,,,,,,,,,,,,,,,,,,,,,,,,,,,,,321.45335090000003,321.4676197,321.76773030000004,321.78436769999996,321.7843969666667,322.63518550000003,322.78517109999996,323.18536689999996,no_response,13,stimuli/T04_apa.wav,#CAA34B,5,,,,,,0,,,,,,,,,,,4,1.205,,,,,,,,,,,,,,,,,,,,,,,595945,001,2026-05-11_11h28.56.522,VAWM,,2026.1.3,60.01583217654687,2026-05-11 11h28.57.488074 -0500,
7,#00A079,#388A82,#008B46,29.39,21.02,46.23,#876523,#334700,#CAA34B,34.27,25.86,48.82,s,n,sh,1,57,T12,T12,T12,stimuli/T12_asa.wav,stimuli/T12_ana.wav,stimuli/T12_asha.wav,p,b,k,1,207,T04,T04,T04,stimuli/T04_apa.wav,stimuli/T04_aba.wav,stimuli/T04_aka.wav,6,0,6,3,0.919,,,,,,,,,0,2,2,6,6,0,6,0,,,,,,,,,,,,,,,,,,,,,,,,,,,,,,,,,323.2023276,,,,,,,,,,,,,,,,,,,,,,,,,,,,,323.18784270000003,323.2023276,323.50241860000006,323.51931490000004,323.5190852666667,324.336683,324.5199331,324.63700860000006,no_response,11,stimuli/T04_aba.wav,#CAA34B,6,,,,,,1,,,,,,,,,,,3,0.919,,,,,,,,,,,,,,,,,,,,,,,595945,001,2026-05-11_11h28.56.522,VAWM,,2026.1.3,60.01583217654687,2026-05-11 11h28.57.488074 -0500,
7,#00A079,#388A82,#008B46,29.39,21.02,46.23,#876523,#334700,#CAA34B,34.27,25.86,48.82,s,n,sh,1,57,T12,T12,T12,stimuli/T12_asa.wav,stimuli/T12_ana.wav,stimuli/T12_asha.wav,p,b,k,1,207,T04,T04,T04,stimuli/T04_apa.wav,stimuli/T04_aba.wav,stimuli/T04_aka.wav,7,0,7,4,0.404,,,,,,,,,0,2,2,6,7,0,7,0,,,,,,,,,,,,,,,,,,,,,,,,,,,,,,,,,324.6534494,,,,,,,,,,,,,,,,,,,,,,,,,,,,,324.63994979999995,324.6534494,324.9536753,324.97056280000004,324.97034196666664,,,325.57062659999997,no_response,5,stimuli/T04_aka.wav,#876523,7,,,,,,0,,,,,,,,,,,4,0.404,,,,,,,,,,,,,,,,,,,,,,,595945,001,2026-05-11_11h28.56.522,VAWM,,2026.1.3,60.01583217654687,2026-05-11 11h28.57.488074 -0500,
7,#00A079,#388A82,#008B46,29.39,21.02,46.23,#876523,#334700,#CAA34B,34.27,25.86,48.82,s,n,sh,1,57,T12,T12,T12,stimuli/T12_asa.wav,stimuli/T12_ana.wav,stimuli/T12_asha.wav,p,b,k,1,207,T04,T04,T04,stimuli/T04_apa.wav,stimuli/T04_aba.wav,stimuli/T04_aka.wav,8,0,8,3,1.366,,,,,,,,,0,2,2,6,8,0,8,0,,,,,,,,,,,,,,,,,,,,,,,,,,,,,,,,,325.5872193,,,,,,,,,,,,,,,,,,,,,,,,,,,,,325.58422770000004,325.5872193,325.8878651,325.90471379999997,325.90453176666665,326.7551489,326.90533089999997,327.47251589999996,no_response,7,stimuli/T04_apa.wav,#334700,8,,,,,,1,,,,,,,,,,,3,1.366,,,,,,,,,,,,,,,,,,,,,,,595945,001,2026-05-11_11h28.56.522,VAWM,,2026.1.3,60.01583217654687,2026-05-11 11h28.57.488074 -0500,
7,#00A079,#388A82,#008B46,29.39,21.02,46.23,#876523,#334700,#CAA34B,34.27,25.86,48.82,s,n,sh,1,57,T12,T12,T12,stimuli/T12_asa.wav,stimuli/T12_ana.wav,stimuli/T12_asha.wav,p,b,k,1,207,T04,T04,T04,stimuli/T04_apa.wav,stimuli/T04_aba.wav,stimuli/T04_aka.wav,2,2,0,,,,,,,,,,,0,2,2,6,,,,,,,,,,,,,,,,,,,,,,,,,,,,,,,,,,,,,,,,,,,,,,,,,,,,,,,,,,,,,,,,,,,,,,,,,,,,,,,,,,,,,,,,,,,,,,,,,,,,,,,,,,,,,,,,,,,,,,,595945,001,2026-05-11_11h28.56.522,VAWM,,2026.1.3,60.01583217654687,2026-05-11 11h28.57.488074 -0500,
15,#CD66A5,#DB57D6,#8F5DA8,32.05,24.22,35.69,#D17655,#BF7791,#E96C2E,35.95,25.06,59.3,eth,s,z,1,255,T08,T08,T08,stimuli/T08_aetha.wav,stimuli/T08_asa.wav,stimuli/T08_aza.wav,zh,b,d,1,31,T12,T12,T12,stimuli/T12_azha.wav,stimuli/T12_aba.wav,stimuli/T12_ada.wav,0,0,0,4,0.535,,,,,,,,,0,3,3,14,0,0,0,0,,,,,,,,,,,,,,,,,,,,,,,,,,,,,,,,,331.72613679999995,,,,,,,,,,,,,,,,,327.4965902,327.5060231,327.8061315,327.8227392,328.8070745,328.8236035,329.8078428,329.80773856666667,330.69199460000004,330.8088356666667,331.70947609999996,331.7095108,331.7122899,331.72613679999995,332.0261947,332.04287810000005,332.04286136666667,,,332.77683420000005,no_response,6,stimuli/T08_aetha.wav,#DB57D6,0,,,,,,0,,,,,,,,,,,4,0.535,,,,,,,,,,,,,,,,,,,,,,,595945,001,2026-05-11_11h28.56.522,VAWM,,2026.1.3,60.01583217654687,2026-05-11 11h28.57.488074 -0500,
15,#CD66A5,#DB57D6,#8F5DA8,32.05,24.22,35.69,#D17655,#BF7791,#E96C2E,35.95,25.06,59.3,eth,s,z,1,255,T08,T08,T08,stimuli/T08_aetha.wav,stimuli/T08_asa.wav,stimuli/T08_aza.wav,zh,b,d,1,31,T12,T12,T12,stimuli/T12_azha.wav,stimuli/T12_aba.wav,stimuli/T12_ada.wav,1,0,1,3,0.56,,,,,,,,,0,3,3,14,1,0,1,0,,,,,,,,,,,,,,,,,,,,,,,,,,,,,,,,,332.8101782,,,,,,,,,,,,,,,,,,,,,,,,,,,,,332.79810540000005,332.8101782,333.1103763,333.1269764,333.12704296666664,,,333.8777337,no_response,9,stimuli/T12_aba.wav,#BF7791,1,,,,,,1,,,,,,,,,,,3,0.56,,,,,,,,,,,,,,,,,,,,,,,595945,001,2026-05-11_11h28.56.522,VAWM,,2026.1.3,60.01583217654687,2026-05-11 11h28.57.488074 -0500,
15,#CD66A5,#DB57D6,#8F5DA8,32.05,24.22,35.69,#D17655,#BF7791,#E96C2E,35.95,25.06,59.3,eth,s,z,1,255,T08,T08,T08,stimuli/T08_aetha.wav,stimuli/T08_asa.wav,stimuli/T08_aza.wav,zh,b,d,1,31,T12,T12,T12,stimuli/T12_azha.wav,stimuli/T12_aba.wav,stimuli/T12_ada.wav,2,0,2,4,1.075,,,,,,,,,0,3,3,14,2,0,2,0,,,,,,,,,,,,,,,,,,,,,,,,,,,,,,,,,333.91107569999997,,,,,,,,,,,,,,,,,,,,,,,,,,,,,333.8971944,333.91107569999997,334.2111909,334.22800540000003,334.22785756666667,335.0453725,335.2285677,335.51279650000004,no_response,5,stimuli/T12_ada.wav,#D17655,2,,,,,,0,,,,,,,,,,,4,1.075,,,,,,,,,,,,,,,,,,,,,,,595945,001,2026-05-11_11h28.56.522,VAWM,,2026.1.3,60.01583217654687,2026-05-11 11h28.57.488074 -0500,
15,#CD66A5,#DB57D6,#8F5DA8,32.05,24.22,35.69,#D17655,#BF7791,#E96C2E,35.95,25.06,59.3,eth,s,z,1,255,T08,T08,T08,stimuli/T08_aetha.wav,stimuli/T08_asa.wav,stimuli/T08_aza.wav,zh,b,d,1,31,T12,T12,T12,stimuli/T12_azha.wav,stimuli/T12_aba.wav,stimuli/T12_ada.wav,3,0,3,3,0.691,,,,,,,,,0,3,3,14,3,0,3,0,,,,,,,,,,,,,,,,,,,,,,,,,,,,,,,,,335.52900580000005,,,,,,,,,,,,,,,,,,,,,,,,,,,,,335.51528399999995,335.52900580000005,335.8295035,335.84610829999997,335.84617016666664,336.7298171,,336.7298508,no_response,0,stimuli/T08_aetha.wav,#CD66A5,3,,,,,,0,,,,,,,,,,,3,0.691,,,,,,,,,,,,,,,,,,,,,,,595945,001,2026-05-11_11h28.56.522,VAWM,,2026.1.3,60.01583217654687,2026-05-11 11h28.57.488074 -0500,
15,#CD66A5,#DB57D6,#8F5DA8,32.05,24.22,35.69,#D17655,#BF7791,#E96C2E,35.95,25.06,59.3,eth,s,z,1,255,T08,T08,T08,stimuli/T08_aetha.wav,stimuli/T08_asa.wav,stimuli/T08_aza.wav,zh,b,d,1,31,T12,T12,T12,stimuli/T12_azha.wav,stimuli/T12_aba.wav,stimuli/T12_ada.wav,4,0,4,3,0.765,,,,,,,,,0,3,3,14,4,0,4,0,,,,,,,,,,,,,,,,,,,,,,,,,,,,,,,,,336.74682310000003,,,,,,,,,,,,,,,,,,,,,,,,,,,,,336.7323943,336.74682310000003,337.0468945,337.063572,337.06356116666666,337.8807247,,338.01450090000003,no_response,17,stimuli/T12_ada.wav,#E96C2E,4,,,,,,1,,,,,,,,,,,3,0.765,,,,,,,,,,,,,,,,,,,,,,,595945,001,2026-05-11_11h28.56.522,VAWM,,2026.1.3,60.01583217654687,2026-05-11 11h28.57.488074 -0500,
15,#CD66A5,#DB57D6,#8F5DA8,32.05,24.22,35.69,#D17655,#BF7791,#E96C2E,35.95,25.06,59.3,eth,s,z,1,255,T08,T08,T08,stimuli/T08_aetha.wav,stimuli/T08_asa.wav,stimuli/T08_aza.wav,zh,b,d,1,31,T12,T12,T12,stimuli/T12_azha.wav,stimuli/T12_aba.wav,stimuli/T12_ada.wav,5,0,5,3,0.752,,,,,,,,,0,3,3,14,5,0,5,0,,,,,,,,,,,,,,,,,,,,,,,,,,,,,,,,,338.0312867,,,,,,,,,,,,,,,,,,,,,,,,,,,,,338.01714979999997,338.0312867,338.3313766,338.34807969999997,338.34804326666665,339.2154528,,339.298906,no_response,12,stimuli/T08_aetha.wav,#8F5DA8,5,,,,,,1,,,,,,,,,,,3,0.752,,,,,,,,,,,,,,,,,,,,,,,595945,001,2026-05-11_11h28.56.522,VAWM,,2026.1.3,60.01583217654687,2026-05-11 11h28.57.488074 -0500,
15,#CD66A5,#DB57D6,#8F5DA8,32.05,24.22,35.69,#D17655,#BF7791,#E96C2E,35.95,25.06,59.3,eth,s,z,1,255,T08,T08,T08,stimuli/T08_aetha.wav,stimuli/T08_asa.wav,stimuli/T08_aza.wav,zh,b,d,1,31,T12,T12,T12,stimuli/T12_azha.wav,stimuli/T12_aba.wav,stimuli/T12_ada.wav,6,0,6,4,0.67,,,,,,,,,0,3,3,14,6,0,6,0,,,,,,,,,,,,,,,,,,,,,,,,,,,,,,,,,339.31562959999997,,,,,,,,,,,,,,,,,,,,,,,,,,,,,339.3014919,339.31562959999997,339.61602130000006,339.6324551,339.6326879666667,,,340.50014510000005,no_response,0,stimuli/T08_aetha.wav,#CD66A5,6,,,,,,1,,,,,,,,,,,4,0.67,,,,,,,,,,,,,,,,,,,,,,,595945,001,2026-05-11_11h28.56.522,VAWM,,2026.1.3,60.01583217654687,2026-05-11 11h28.57.488074 -0500,
15,#CD66A5,#DB57D6,#8F5DA8,32.05,24.22,35.69,#D17655,#BF7791,#E96C2E,35.95,25.06,59.3,eth,s,z,1,255,T08,T08,T08,stimuli/T08_aetha.wav,stimuli/T08_asa.wav,stimuli/T08_aza.wav,zh,b,d,1,31,T12,T12,T12,stimuli/T12_azha.wav,stimuli/T12_aba.wav,stimuli/T12_ada.wav,7,0,7,3,0.99,,,,,,,,,0,3,3,14,7,0,7,0,,,,,,,,,,,,,,,,,,,,,,,,,,,,,,,,,340.5165501,,,,,,,,,,,,,,,,,,,,,,,,,,,,,340.5027305,340.5165501,340.8170099,340.8336495,340.83367656666667,341.6507795,341.83447609999996,342.0178495,no_response,15,stimuli/T12_ada.wav,#BF7791,7,,,,,,1,,,,,,,,,,,3,0.99,,,,,,,,,,,,,,,,,,,,,,,595945,001,2026-05-11_11h28.56.522,VAWM,,2026.1.3,60.01583217654687,2026-05-11 11h28.57.488074 -0500,
15,#CD66A5,#DB57D6,#8F5DA8,32.05,24.22,35.69,#D17655,#BF7791,#E96C2E,35.95,25.06,59.3,eth,s,z,1,255,T08,T08,T08,stimuli/T08_aetha.wav,stimuli/T08_asa.wav,stimuli/T08_aza.wav,zh,b,d,1,31,T12,T12,T12,stimuli/T12_azha.wav,stimuli/T12_aba.wav,stimuli/T12_ada.wav,8,0,8,4,0.643,,,,,,,,,0,3,3,14,8,0,8,0,,,,,,,,,,,,,,,,,,,,,,,,,,,,,,,,,342.0345999,,,,,,,,,,,,,,,,,,,,,,,,,,,,,342.01955410000005,342.0345999,342.33486800000003,342.3515449,342.3515346666667,343.16881309999997,,343.1851508,no_response,3,stimuli/T12_aba.wav,#D17655,8,,,,,,0,,,,,,,,,,,4,0.643,,,,,,,,,,,,,,,,,,,,,,,595945,001,2026-05-11_11h28.56.522,VAWM,,2026.1.3,60.01583217654687,2026-05-11 11h28.57.488074 -0500,
15,#CD66A5,#DB57D6,#8F5DA8,32.05,24.22,35.69,#D17655,#BF7791,#E96C2E,35.95,25.06,59.3,eth,s,z,1,255,T08,T08,T08,stimuli/T08_aetha.wav,stimuli/T08_asa.wav,stimuli/T08_aza.wav,zh,b,d,1,31,T12,T12,T12,stimuli/T12_azha.wav,stimuli/T12_aba.wav,stimuli/T12_ada.wav,3,3,0,,,,,,,,,,,0,3,3,14,,,,,,,,,,,,,,,,,,,,,,,,,,,,,,,,,,,,,,,,,,,,,,,,,,,,,,,,,,,,,,,,,,,,,,,,,,,,,,,,,,,,,,,,,,,,,,,,,,,,,,,,,,,,,,,,,,,,,,,595945,001,2026-05-11_11h28.56.522,VAWM,,2026.1.3,60.01583217654687,2026-05-11 11h28.57.488074 -0500,
11,#93923E,#3E9F8C,#B37C20,47.84,26.98,70.71,#CA603C,#E57582,#DB9080,29.11,27.3,19.69,v,m,d,7,81,T10,T10,T10,stimuli/T10_ava.wav,stimuli/T10_ama.wav,stimuli/T10_ada.wav,zh,b,d,1,31,T01,T01,T01,stimuli/T01_azha.wav,stimuli/T01_aba.wav,stimuli/T01_ada.wav,0,0,0,4,0.666,,,,,,,,,0,4,4,10,0,0,0,0,,,,,,,,,,,,,,,,,,,,,,,,,,,,,,,,,347.42247929999996,,,,,,,,,,,,,,,,,343.2123791,343.21886429999995,343.5190817,343.53577600000006,344.5201339,344.53665709999996,345.52061860000003,345.5206368666667,346.38795919999995,346.52162766666663,347.4055466,347.40558280000005,347.40851840000005,347.42247929999996,347.72278100000005,347.73916310000004,347.7394476666667,,,348.60660310000003,no_response,12,stimuli/T10_ava.wav,#B37C20,0,,,,,,0,,,,,,,,,,,4,0.666,,,,,,,,,,,,,,,,,,,,,,,595945,001,2026-05-11_11h28.56.522,VAWM,,2026.1.3,60.01583217654687,2026-05-11 11h28.57.488074 -0500,
11,#93923E,#3E9F8C,#B37C20,47.84,26.98,70.71,#CA603C,#E57582,#DB9080,29.11,27.3,19.69,v,m,d,7,81,T10,T10,T10,stimuli/T10_ava.wav,stimuli/T10_ama.wav,stimuli/T10_ada.wav,zh,b,d,1,31,T01,T01,T01,stimuli/T01_azha.wav,stimuli/T01_aba.wav,stimuli/T01_ada.wav,1,0,1,3,0.804,,,,,,,,,0,4,4,10,1,0,1,0,,,,,,,,,,,,,,,,,,,,,,,,,,,,,,,,,348.62332760000004,,,,,,,,,,,,,,,,,,,,,,,,,,,,,348.6168559,348.62332760000004,348.9234894,348.940298,348.94015606666665,349.7574019,349.94098670000005,349.9410193,no_response,5,stimuli/T01_ada.wav,#CA603C,1,,,,,,1,,,,,,,,,,,3,0.804,,,,,,,,,,,,,,,,,,,,,,,595945,001,2026-05-11_11h28.56.522,VAWM,,2026.1.3,60.01583217654687,2026-05-11 11h28.57.488074 -0500,
11,#93923E,#3E9F8C,#B37C20,47.84,26.98,70.71,#CA603C,#E57582,#DB9080,29.11,27.3,19.69,v,m,d,7,81,T10,T10,T10,stimuli/T10_ava.wav,stimuli/T10_ama.wav,stimuli/T10_ada.wav,zh,b,d,1,31,T01,T01,T01,stimuli/T01_azha.wav,stimuli/T01_aba.wav,stimuli/T01_ada.wav,2,0,2,3,0.819,,,,,,,,,0,4,4,10,2,0,2,0,,,,,,,,,,,,,,,,,,,,,,,,,,,,,,,,,349.9578182,,,,,,,,,,,,,,,,,,,,,,,,,,,,,349.94301900000005,349.9578182,350.25798039999995,350.27459220000003,350.2746470666666,351.0919304,351.27559299999996,351.29217900000003,no_response,17,stimuli/T01_ada.wav,#DB9080,2,,,,,,1,,,,,,,,,,,3,0.819,,,,,,,,,,,,,,,,,,,,,,,595945,001,2026-05-11_11h28.56.522,VAWM,,2026.1.3,60.01583217654687,2026-05-11 11h28.57.488074 -0500,
11,#93923E,#3E9F8C,#B37C20,47.84,26.98,70.71,#CA603C,#E57582,#DB9080,29.11,27.3,19.69,v,m,d,7,81,T10,T10,T10,stimuli/T10_ava.wav,stimuli/T10_ama.wav,stimuli/T10_ada.wav,zh,b,d,1,31,T01,T01,T01,stimuli/T01_azha.wav,stimuli/T01_aba.wav,stimuli/T01_ada.wav,3,0,3,None,,,,,,,,,,0,4,4,10,3,0,3,0,,,,,,,,,,,,,,,,,,,,,,,,,,,,,,,,,351.3087775,,,,,,,,,,,,,,,,,,,,,,,,,,,,,351.2945568,351.3087775,351.60921129999997,351.625448,351.6258779666666,352.44302589999995,352.6266052,353.8108506,no_response,11,stimuli/T01_aba.wav,#DB9080,3,,,,,,0,,,,,,,,,,,None,,,,,,,,,,,,,,,,,,,,,,,,595945,001,2026-05-11_11h28.56.522,VAWM,,2026.1.3,60.01583217654687,2026-05-11 11h28.57.488074 -0500,
11,#93923E,#3E9F8C,#B37C20,47.84,26.98,70.71,#CA603C,#E57582,#DB9080,29.11,27.3,19.69,v,m,d,7,81,T10,T10,T10,stimuli/T10_ava.wav,stimuli/T10_ama.wav,stimuli/T10_ada.wav,zh,b,d,1,31,T01,T01,T01,stimuli/T01_azha.wav,stimuli/T01_aba.wav,stimuli/T01_ada.wav,4,0,4,3,0.92,,,,,,,,,0,4,4,10,4,0,4,0,,,,,,,,,,,,,,,,,,,,,,,,,,,,,,,,,353.82753319999995,,,,,,,,,,,,,,,,,,,,,,,,,,,,,353.81404569999995,353.82753319999995,354.12782200000004,354.1444318,354.1444886666667,355.0285844,355.1453781,355.26210449999996,no_response,7,stimuli/T01_azha.wav,#E57582,4,,,,,,1,,,,,,,,,,,3,0.92,,,,,,,,,,,,,,,,,,,,,,,595945,001,2026-05-11_11h28.56.522,VAWM,,2026.1.3,60.01583217654687,2026-05-11 11h28.57.488074 -0500,
11,#93923E,#3E9F8C,#B37C20,47.84,26.98,70.71,#CA603C,#E57582,#DB9080,29.11,27.3,19.69,v,m,d,7,81,T10,T10,T10,stimuli/T10_ava.wav,stimuli/T10_ama.wav,stimuli/T10_ada.wav,zh,b,d,1,31,T01,T01,T01,stimuli/T01_azha.wav,stimuli/T01_aba.wav,stimuli/T01_ada.wav,5,0,5,4,0.616,,,,,,,,,0,4,4,10,5,0,5,0,,,,,,,,,,,,,,,,,,,,,,,,,,,,,,,,,355.27890219999995,,,,,,,,,,,,,,,,,,,,,,,,,,,,,355.26504769999997,355.27890219999995,355.57906160000005,355.595691,355.5957282666667,,,356.4130487,no_response,1,stimuli/T01_azha.wav,#CA603C,5,,,,,,1,,,,,,,,,,,4,0.616,,,,,,,,,,,,,,,,,,,,,,,595945,001,2026-05-11_11h28.56.522,VAWM,,2026.1.3,60.01583217654687,2026-05-11 11h28.57.488074 -0500,
11,#93923E,#3E9F8C,#B37C20,47.84,26.98,70.71,#CA603C,#E57582,#DB9080,29.11,27.3,19.69,v,m,d,7,81,T10,T10,T10,stimuli/T10_ava.wav,stimuli/T10_ama.wav,stimuli/T10_ada.wav,zh,b,d,1,31,T01,T01,T01,stimuli/T01_azha.wav,stimuli/T01_aba.wav,stimuli/T01_ada.wav,6,0,6,4,0.683,,,,,,,,,0,4,4,10,6,0,6,0,,,,,,,,,,,,,,,,,,,,,,,,,,,,,,,,,356.4463425,,,,,,,,,,,,,,,,,,,,,,,,,,,,,356.43706139999995,356.4463425,356.7465988,356.7630498,356.76326546666667,357.6474772,,357.64752020000003,no_response,1,stimuli/T01_azha.wav,#CA603C,6,,,,,,1,,,,,,,,,,,4,0.683,,,,,,,,,,,,,,,,,,,,,,,595945,001,2026-05-11_11h28.56.522,VAWM,,2026.1.3,60.01583217654687,2026-05-11 11h28.57.488074 -0500,
11,#93923E,#3E9F8C,#B37C20,47.84,26.98,70.71,#CA603C,#E57582,#DB9080,29.11,27.3,19.69,v,m,d,7,81,T10,T10,T10,stimuli/T10_ava.wav,stimuli/T10_ama.wav,stimuli/T10_ada.wav,zh,b,d,1,31,T01,T01,T01,stimuli/T01_azha.wav,stimuli/T01_aba.wav,stimuli/T01_ada.wav,7,0,7,3,1.365,,,,,,,,,0,4,4,10,7,0,7,0,,,,,,,,,,,,,,,,,,,,,,,,,,,,,,,,,357.6641164,,,,,,,,,,,,,,,,,,,,,,,,,,,,,357.65659000000005,357.6641164,357.96400270000004,357.98092710000003,357.9806693666667,358.8482107,358.9819976,359.5491396,no_response,2,stimuli/T10_ama.wav,#93923E,7,,,,,,1,,,,,,,,,,,3,1.365,,,,,,,,,,,,,,,,,,,,,,,595945,001,2026-05-11_11h28.56.522,VAWM,,2026.1.3,60.01583217654687,2026-05-11 11h28.57.488074 -0500,
11,#93923E,#3E9F8C,#B37C20,47.84,26.98,70.71,#CA603C,#E57582,#DB9080,29.11,27.3,19.69,v,m,d,7,81,T10,T10,T10,stimuli/T10_ava.wav,stimuli/T10_ama.wav,stimuli/T10_ada.wav,zh,b,d,1,31,T01,T01,T01,stimuli/T01_azha.wav,stimuli/T01_aba.wav,stimuli/T01_ada.wav,8,0,8,3,0.614,,,,,,,,,0,4,4,10,8,0,8,0,,,,,,,,,,,,,,,,,,,,,,,,,,,,,,,,,359.56565739999996,,,,,,,,,,,,,,,,,,,,,,,,,,,,,359.55101790000003,359.56565739999996,359.86600639999995,359.88253480000003,359.8826730666666,,,360.70014790000005,no_response,8,stimuli/T10_ama.wav,#3E9F8C,8,,,,,,1,,,,,,,,,,,3,0.614,,,,,,,,,,,,,,,,,,,,,,,595945,001,2026-05-11_11h28.56.522,VAWM,,2026.1.3,60.01583217654687,2026-05-11 11h28.57.488074 -0500,
11,#93923E,#3E9F8C,#B37C20,47.84,26.98,70.71,#CA603C,#E57582,#DB9080,29.11,27.3,19.69,v,m,d,7,81,T10,T10,T10,stimuli/T10_ava.wav,stimuli/T10_ama.wav,stimuli/T10_ada.wav,zh,b,d,1,31,T01,T01,T01,stimuli/T01_azha.wav,stimuli/T01_aba.wav,stimuli/T01_ada.wav,4,4,0,,,,,,,,,,,0,4,4,10,,,,,,,,,,,,,,,,,,,,,,,,,,,,,,,,,,,,,,,,,,,,,,,,,,,,,,,,,,,,,,,,,,,,,,,,,,,,,,,,,,,,,,,,,,,,,,,,,,,,,,,,,,,,,,,,,,,,,,,595945,001,2026-05-11_11h28.56.522,VAWM,,2026.1.3,60.01583217654687,2026-05-11 11h28.57.488074 -0500,
5,#6B8E2F,#009E00,#006610,39.51,26.07,36.61,#99497B,#FFA6AA,#C263B4,46.21,20.41,48.2,n,zh,m,1,57,T08,T08,T08,stimuli/T08_ana.wav,stimuli/T08_azha.wav,stimuli/T08_ama.wav,g,m,v,1,197,T03,T03,T03,stimuli/T03_aga.wav,stimuli/T03_ama.wav,stimuli/T03_ava.wav,0,0,0,3,1.635,,,,,,,,,0,5,5,4,0,0,0,0,,,,,,,,,,,,,,,,,,,,,,,,,,,,,,,,,364.86969039999997,,,,,,,,,,,,,,,,,360.73227640000005,360.75009409999996,361.05028730000004,361.05028730000004,362.034347,362.0508006,363.0351438,363.03515476666666,363.90224539999997,364.0359924666667,364.8533115,364.8533483,364.8649091,364.86969039999997,365.17040280000003,365.18709839999997,365.1870694666667,366.0710818,366.1878474,367.0219393,no_response,2,stimuli/T08_azha.wav,#6B8E2F,0,,,,,,1,,,,,,,,,,,3,1.635,,,,,,,,,,,,,,,,,,,,,,,595945,001,2026-05-11_11h28.56.522,VAWM,,2026.1.3,60.01583217654687,2026-05-11 11h28.57.488074 -0500,
5,#6B8E2F,#009E00,#006610,39.51,26.07,36.61,#99497B,#FFA6AA,#C263B4,46.21,20.41,48.2,n,zh,m,1,57,T08,T08,T08,stimuli/T08_ana.wav,stimuli/T08_azha.wav,stimuli/T08_ama.wav,g,m,v,1,197,T03,T03,T03,stimuli/T03_aga.wav,stimuli/T03_ama.wav,stimuli/T03_ava.wav,1,0,1,3,0.776,,,,,,,,,0,5,5,4,1,0,1,0,,,,,,,,,,,,,,,,,,,,,,,,,,,,,,,,,367.0384169,,,,,,,,,,,,,,,,,,,,,,,,,,,,,367.02373769999997,367.0384169,367.3387031,367.35536390000004,367.3553697666666,368.2227887,,368.32305040000006,no_response,6,stimuli/T08_ana.wav,#009E00,1,,,,,,1,,,,,,,,,,,3,0.776,,,,,,,,,,,,,,,,,,,,,,,595945,001,2026-05-11_11h28.56.522,VAWM,,2026.1.3,60.01583217654687,2026-05-11 11h28.57.488074 -0500,
5,#6B8E2F,#009E00,#006610,39.51,26.07,36.61,#99497B,#FFA6AA,#C263B4,46.21,20.41,48.2,n,zh,m,1,57,T08,T08,T08,stimuli/T08_ana.wav,stimuli/T08_azha.wav,stimuli/T08_ama.wav,g,m,v,1,197,T03,T03,T03,stimuli/T03_aga.wav,stimuli/T03_ama.wav,stimuli/T03_ava.wav,2,0,2,4,0.422,,,,,,,,,0,5,5,4,2,0,2,0,,,,,,,,,,,,,,,,,,,,,,,,,,,,,,,,,368.339523,,,,,,,,,,,,,,,,,,,,,,,,,,,,,368.32488120000005,368.339523,368.63975330000005,368.6564625,368.6564199666667,,,369.27385489999995,no_response,0,stimuli/T08_ana.wav,#6B8E2F,2,,,,,,1,,,,,,,,,,,4,0.422,,,,,,,,,,,,,,,,,,,,,,,595945,001,2026-05-11_11h28.56.522,VAWM,,2026.1.3,60.01583217654687,2026-05-11 11h28.57.488074 -0500,
5,#6B8E2F,#009E00,#006610,39.51,26.07,36.61,#99497B,#FFA6AA,#C263B4,46.21,20.41,48.2,n,zh,m,1,57,T08,T08,T08,stimuli/T08_ana.wav,stimuli/T08_azha.wav,stimuli/T08_ama.wav,g,m,v,1,197,T03,T03,T03,stimuli/T03_aga.wav,stimuli/T03_ama.wav,stimuli/T03_ava.wav,3,0,3,3,1.271,,,,,,,,,0,5,5,4,3,0,3,0,,,,,,,,,,,,,,,,,,,,,,,,,,,,,,,,,369.3070491,,,,,,,,,,,,,,,,,,,,,,,,,,,,,369.2928786,369.3070491,369.6072199,369.62413879999997,369.62388656666667,370.44133669999997,370.62471159999996,371.09181390000003,no_response,13,stimuli/T03_aga.wav,#C263B4,3,,,,,,1,,,,,,,,,,,3,1.271,,,,,,,,,,,,,,,,,,,,,,,595945,001,2026-05-11_11h28.56.522,VAWM,,2026.1.3,60.01583217654687,2026-05-11 11h28.57.488074 -0500,
5,#6B8E2F,#009E00,#006610,39.51,26.07,36.61,#99497B,#FFA6AA,#C263B4,46.21,20.41,48.2,n,zh,m,1,57,T08,T08,T08,stimuli/T08_ana.wav,stimuli/T08_azha.wav,stimuli/T08_ama.wav,g,m,v,1,197,T03,T03,T03,stimuli/T03_aga.wav,stimuli/T03_ama.wav,stimuli/T03_ava.wav,4,0,4,3,1.338,,,,,,,,,0,5,5,4,4,0,4,0,,,,,,,,,,,,,,,,,,,,,,,,,,,,,,,,,371.108387,,,,,,,,,,,,,,,,,,,,,,,,,,,,,371.10024020000003,371.108387,371.40892629999996,371.4255859,371.4255929666666,372.27629379999996,372.44296399999996,372.9600533,no_response,16,stimuli/T08_ama.wav,#006610,4,,,,,,1,,,,,,,,,,,3,1.338,,,,,,,,,,,,,,,,,,,,,,,595945,001,2026-05-11_11h28.56.522,VAWM,,2026.1.3,60.01583217654687,2026-05-11 11h28.57.488074 -0500,
5,#6B8E2F,#009E00,#006610,39.51,26.07,36.61,#99497B,#FFA6AA,#C263B4,46.21,20.41,48.2,n,zh,m,1,57,T08,T08,T08,stimuli/T08_ana.wav,stimuli/T08_azha.wav,stimuli/T08_ama.wav,g,m,v,1,197,T03,T03,T03,stimuli/T03_aga.wav,stimuli/T03_ama.wav,stimuli/T03_ava.wav,5,0,5,3,0.605,,,,,,,,,0,5,5,4,5,0,5,0,,,,,,,,,,,,,,,,,,,,,,,,,,,,,,,,,372.97653019999996,,,,,,,,,,,,,,,,,,,,,,,,,,,,,372.96312439999997,372.97653019999996,373.27695370000004,373.29359750000003,373.2936203666667,,,374.0944931,no_response,8,stimuli/T08_azha.wav,#009E00,5,,,,,,1,,,,,,,,,,,3,0.605,,,,,,,,,,,,,,,,,,,,,,,595945,001,2026-05-11_11h28.56.522,VAWM,,2026.1.3,60.01583217654687,2026-05-11 11h28.57.488074 -0500,
5,#6B8E2F,#009E00,#006610,39.51,26.07,36.61,#99497B,#FFA6AA,#C263B4,46.21,20.41,48.2,n,zh,m,1,57,T08,T08,T08,stimuli/T08_ana.wav,stimuli/T08_azha.wav,stimuli/T08_ama.wav,g,m,v,1,197,T03,T03,T03,stimuli/T03_aga.wav,stimuli/T03_ama.wav,stimuli/T03_ava.wav,6,0,6,3,1.49,,,,,,,,,0,5,5,4,6,0,6,0,,,,,,,,,,,,,,,,,,,,,,,,,,,,,,,,,374.1276894,,,,,,,,,,,,,,,,,,,,,,,,,,,,,374.118733,374.1276894,374.42776330000004,374.4445436,374.4444299666667,375.3287847,375.44553570000005,376.1291949,no_response,8,stimuli/T08_azha.wav,#009E00,6,,,,,,1,,,,,,,,,,,3,1.49,,,,,,,,,,,,,,,,,,,,,,,595945,001,2026-05-11_11h28.56.522,VAWM,,2026.1.3,60.01583217654687,2026-05-11 11h28.57.488074 -0500,
5,#6B8E2F,#009E00,#006610,39.51,26.07,36.61,#99497B,#FFA6AA,#C263B4,46.21,20.41,48.2,n,zh,m,1,57,T08,T08,T08,stimuli/T08_ana.wav,stimuli/T08_azha.wav,stimuli/T08_ama.wav,g,m,v,1,197,T03,T03,T03,stimuli/T03_aga.wav,stimuli/T03_ama.wav,stimuli/T03_ava.wav,7,0,7,4,0.714,,,,,,,,,0,5,5,4,7,0,7,0,,,,,,,,,,,,,,,,,,,,,,,,,,,,,,,,,376.14588690000005,,,,,,,,,,,,,,,,,,,,,,,,,,,,,376.1310688,376.14588690000005,376.44623679999995,376.46296099999995,376.4629034666666,377.33038109999995,,377.3635798,no_response,0,stimuli/T08_ana.wav,#6B8E2F,7,,,,,,1,,,,,,,,,,,4,0.714,,,,,,,,,,,,,,,,,,,,,,,595945,001,2026-05-11_11h28.56.522,VAWM,,2026.1.3,60.01583217654687,2026-05-11 11h28.57.488074 -0500,
5,#6B8E2F,#009E00,#006610,39.51,26.07,36.61,#99497B,#FFA6AA,#C263B4,46.21,20.41,48.2,n,zh,m,1,57,T08,T08,T08,stimuli/T08_ana.wav,stimuli/T08_azha.wav,stimuli/T08_ama.wav,g,m,v,1,197,T03,T03,T03,stimuli/T03_aga.wav,stimuli/T03_ama.wav,stimuli/T03_ava.wav,8,0,8,4,0.853,,,,,,,,,0,5,5,4,8,0,8,0,,,,,,,,,,,,,,,,,,,,,,,,,,,,,,,,,377.3805929,,,,,,,,,,,,,,,,,,,,,,,,,,,,,377.3652025,377.3805929,377.68057810000005,377.69741,377.6972447666667,378.5814762,378.6983673,378.73168139999996,no_response,5,stimuli/T03_ava.wav,#99497B,8,,,,,,0,,,,,,,,,,,4,0.853,,,,,,,,,,,,,,,,,,,,,,,595945,001,2026-05-11_11h28.56.522,VAWM,,2026.1.3,60.01583217654687,2026-05-11 11h28.57.488074 -0500,
5,#6B8E2F,#009E00,#006610,39.51,26.07,36.61,#99497B,#FFA6AA,#C263B4,46.21,20.41,48.2,n,zh,m,1,57,T08,T08,T08,stimuli/T08_ana.wav,stimuli/T08_azha.wav,stimuli/T08_ama.wav,g,m,v,1,197,T03,T03,T03,stimuli/T03_aga.wav,stimuli/T03_ama.wav,stimuli/T03_ava.wav,5,5,0,,,,,,,,,,,0,5,5,4,,,,,,,,,,,,,,,,,,,,,,,,,,,,,,,,,,,,,,,,,,,,,,,,,,,,,,,,,,,,,,,,,,,,,,,,,,,,,,,,,,,,,,,,,,,,,,,,,,,,,,,,,,,,,,,,,,,,,,,595945,001,2026-05-11_11h28.56.522,VAWM,,2026.1.3,60.01583217654687,2026-05-11 11h28.57.488074 -0500,
25,#B05990,#5E165F,#BF369E,29.82,25.18,33.07,#517C2E,#767F00,#448C70,29.0,29.26,56.52,d,theta,g,3,107,T06,T06,T06,stimuli/T06_ada.wav,stimuli/T06_athetaa.wav,stimuli/T06_aga.wav,s,eth,sh,1,57,T04,T04,T04,stimuli/T04_asa.wav,stimuli/T04_aetha.wav,stimuli/T04_asha.wav,0,0,0,3,0.513,,,,,,,,,0,6,6,24,0,0,0,0,,,,,,,,,,,,,,,,,,,,,,,,,,,,,,,,,383.01824369999997,,,,,,,,,,,,,,,,,378.7517629,378.7649129,379.0649333,379.08171360000006,380.06605479999996,380.0826102,381.06688540000005,381.0668605666666,381.88407959999995,382.05080956666666,382.9851522,382.9851856,382.99909479999997,383.01824369999997,383.3185906,383.3185906,383.3186411666667,,,384.01918020000005,no_response,16,stimuli/T06_aga.wav,#BF369E,0,,,,,,1,,,,,,,,,,,3,0.513,,,,,,,,,,,,,,,,,,,,,,,595945,001,2026-05-11_11h28.56.522,VAWM,,2026.1.3,60.01583217654687,2026-05-11 11h28.57.488074 -0500,
25,#B05990,#5E165F,#BF369E,29.82,25.18,33.07,#517C2E,#767F00,#448C70,29.0,29.26,56.52,d,theta,g,3,107,T06,T06,T06,stimuli/T06_ada.wav,stimuli/T06_athetaa.wav,stimuli/T06_aga.wav,s,eth,sh,1,57,T04,T04,T04,stimuli/T04_asa.wav,stimuli/T04_aetha.wav,stimuli/T04_asha.wav,1,0,1,3,0.799,,,,,,,,,0,6,6,24,1,0,1,0,,,,,,,,,,,,,,,,,,,,,,,,,,,,,,,,,384.05271089999997,,,,,,,,,,,,,,,,,,,,,,,,,,,,,384.03334889999996,384.05271089999997,384.3527491,384.3527491,384.35281096666665,385.2869029,,385.3369355,no_response,13,stimuli/T04_asa.wav,#448C70,1,,,,,,1,,,,,,,,,,,3,0.799,,,,,,,,,,,,,,,,,,,,,,,595945,001,2026-05-11_11h28.56.522,VAWM,,2026.1.3,60.01583217654687,2026-05-11 11h28.57.488074 -0500,
25,#B05990,#5E165F,#BF369E,29.82,25.18,33.07,#517C2E,#767F00,#448C70,29.0,29.26,56.52,d,theta,g,3,107,T06,T06,T06,stimuli/T06_ada.wav,stimuli/T06_athetaa.wav,stimuli/T06_aga.wav,s,eth,sh,1,57,T04,T04,T04,stimuli/T04_asa.wav,stimuli/T04_aetha.wav,stimuli/T04_asha.wav,2,0,2,4,0.698,,,,,,,,,0,6,6,24,2,0,2,0,,,,,,,,,,,,,,,,,,,,,,,,,,,,,,,,,385.3536126,,,,,,,,,,,,,,,,,,,,,,,,,,,,,385.3414738,385.3536126,385.65369940000005,385.670563,385.6703660666667,,,386.55476410000006,no_response,5,stimuli/T04_asha.wav,#517C2E,2,,,,,,0,,,,,,,,,,,4,0.698,,,,,,,,,,,,,,,,,,,,,,,595945,001,2026-05-11_11h28.56.522,VAWM,,2026.1.3,60.01583217654687,2026-05-11 11h28.57.488074 -0500,
25,#B05990,#5E165F,#BF369E,29.82,25.18,33.07,#517C2E,#767F00,#448C70,29.0,29.26,56.52,d,theta,g,3,107,T06,T06,T06,stimuli/T06_ada.wav,stimuli/T06_athetaa.wav,stimuli/T06_aga.wav,s,eth,sh,1,57,T04,T04,T04,stimuli/T04_asa.wav,stimuli/T04_aetha.wav,stimuli/T04_asha.wav,3,0,3,3,0.878,,,,,,,,,0,6,6,24,3,0,3,0,,,,,,,,,,,,,,,,,,,,,,,,,,,,,,,,,386.58804080000004,,,,,,,,,,,,,,,,,,,,,,,,,,,,,386.57411030000003,386.58804080000004,386.888274,386.9048113,386.9049406666667,387.7223034,387.90569990000006,387.97244609999996,no_response,6,stimuli/T06_ada.wav,#5E165F,3,,,,,,1,,,,,,,,,,,3,0.878,,,,,,,,,,,,,,,,,,,,,,,595945,001,2026-05-11_11h28.56.522,VAWM,,2026.1.3,60.01583217654687,2026-05-11 11h28.57.488074 -0500,
25,#B05990,#5E165F,#BF369E,29.82,25.18,33.07,#517C2E,#767F00,#448C70,29.0,29.26,56.52,d,theta,g,3,107,T06,T06,T06,stimuli/T06_ada.wav,stimuli/T06_athetaa.wav,stimuli/T06_aga.wav,s,eth,sh,1,57,T04,T04,T04,stimuli/T04_asa.wav,stimuli/T04_aetha.wav,stimuli/T04_asha.wav,4,0,4,4,0.959,,,,,,,,,0,6,6,24,4,0,4,0,,,,,,,,,,,,,,,,,,,,,,,,,,,,,,,,,387.98921900000005,,,,,,,,,,,,,,,,,,,,,,,,,,,,,387.9834068,387.98921900000005,388.28922450000005,388.3061702,388.3058911666667,389.22346030000006,389.3070215,389.4569702,no_response,2,stimuli/T06_athetaa.wav,#B05990,4,,,,,,0,,,,,,,,,,,4,0.959,,,,,,,,,,,,,,,,,,,,,,,595945,001,2026-05-11_11h28.56.522,VAWM,,2026.1.3,60.01583217654687,2026-05-11 11h28.57.488074 -0500,
25,#B05990,#5E165F,#BF369E,29.82,25.18,33.07,#517C2E,#767F00,#448C70,29.0,29.26,56.52,d,theta,g,3,107,T06,T06,T06,stimuli/T06_ada.wav,stimuli/T06_athetaa.wav,stimuli/T06_aga.wav,s,eth,sh,1,57,T04,T04,T04,stimuli/T04_asa.wav,stimuli/T04_aetha.wav,stimuli/T04_asha.wav,5,0,5,3,1.105,,,,,,,,,0,6,6,24,5,0,5,0,,,,,,,,,,,,,,,,,,,,,,,,,,,,,,,,,389.47376469999995,,,,,,,,,,,,,,,,,,,,,,,,,,,,,389.45908670000006,389.47376469999995,389.77382769999997,389.7907963,389.7904943666666,390.6746862,390.79139699999996,391.09189719999995,no_response,11,stimuli/T04_aetha.wav,#448C70,5,,,,,,1,,,,,,,,,,,3,1.105,,,,,,,,,,,,,,,,,,,,,,,595945,001,2026-05-11_11h28.56.522,VAWM,,2026.1.3,60.01583217654687,2026-05-11 11h28.57.488074 -0500,
25,#B05990,#5E165F,#BF369E,29.82,25.18,33.07,#517C2E,#767F00,#448C70,29.0,29.26,56.52,d,theta,g,3,107,T06,T06,T06,stimuli/T06_ada.wav,stimuli/T06_athetaa.wav,stimuli/T06_aga.wav,s,eth,sh,1,57,T04,T04,T04,stimuli/T04_asa.wav,stimuli/T04_aetha.wav,stimuli/T04_asha.wav,6,0,6,4,1.008,,,,,,,,,0,6,6,24,6,0,6,0,,,,,,,,,,,,,,,,,,,,,,,,,,,,,,,,,391.10836630000006,,,,,,,,,,,,,,,,,,,,,,,,,,,,,391.09459330000004,391.10836630000006,391.4088018,391.4255074,391.42546846666664,392.2427079,392.42621710000003,392.62651400000004,no_response,0,stimuli/T06_ada.wav,#B05990,6,,,,,,1,,,,,,,,,,,4,1.008,,,,,,,,,,,,,,,,,,,,,,,595945,001,2026-05-11_11h28.56.522,VAWM,,2026.1.3,60.01583217654687,2026-05-11 11h28.57.488074 -0500,
25,#B05990,#5E165F,#BF369E,29.82,25.18,33.07,#517C2E,#767F00,#448C70,29.0,29.26,56.52,d,theta,g,3,107,T06,T06,T06,stimuli/T06_ada.wav,stimuli/T06_athetaa.wav,stimuli/T06_aga.wav,s,eth,sh,1,57,T04,T04,T04,stimuli/T04_asa.wav,stimuli/T04_aetha.wav,stimuli/T04_asha.wav,7,0,7,4,0.937,,,,,,,,,0,6,6,24,7,0,7,0,,,,,,,,,,,,,,,,,,,,,,,,,,,,,,,,,392.64312110000003,,,,,,,,,,,,,,,,,,,,,,,,,,,,,392.62936290000005,392.64312110000003,392.94316819999995,392.95983709999996,392.9598348666666,393.7774028,393.9609124,394.0941093,no_response,0,stimuli/T06_ada.wav,#B05990,7,,,,,,1,,,,,,,,,,,4,0.937,,,,,,,,,,,,,,,,,,,,,,,595945,001,2026-05-11_11h28.56.522,VAWM,,2026.1.3,60.01583217654687,2026-05-11 11h28.57.488074 -0500,
25,#B05990,#5E165F,#BF369E,29.82,25.18,33.07,#517C2E,#767F00,#448C70,29.0,29.26,56.52,d,theta,g,3,107,T06,T06,T06,stimuli/T06_ada.wav,stimuli/T06_athetaa.wav,stimuli/T06_aga.wav,s,eth,sh,1,57,T04,T04,T04,stimuli/T04_asa.wav,stimuli/T04_aetha.wav,stimuli/T04_asha.wav,8,0,8,4,0.807,,,,,,,,,0,6,6,24,8,0,8,0,,,,,,,,,,,,,,,,,,,,,,,,,,,,,,,,,394.1107998,,,,,,,,,,,,,,,,,,,,,,,,,,,,,394.0962922,394.1107998,394.4112324,394.42769710000005,394.42789906666667,395.31174150000004,395.4285568,395.42859280000005,no_response,11,stimuli/T04_aetha.wav,#448C70,8,,,,,,0,,,,,,,,,,,4,0.807,,,,,,,,,,,,,,,,,,,,,,,595945,001,2026-05-11_11h28.56.522,VAWM,,2026.1.3,60.01583217654687,2026-05-11 11h28.57.488074 -0500,
25,#B05990,#5E165F,#BF369E,29.82,25.18,33.07,#517C2E,#767F00,#448C70,29.0,29.26,56.52,d,theta,g,3,107,T06,T06,T06,stimuli/T06_ada.wav,stimuli/T06_athetaa.wav,stimuli/T06_aga.wav,s,eth,sh,1,57,T04,T04,T04,stimuli/T04_asa.wav,stimuli/T04_aetha.wav,stimuli/T04_asha.wav,6,6,0,,,,,,,,,,,0,6,6,24,,,,,,,,,,,,,,,,,,,,,,,,,,,,,,,,,,,,,,,,,,,,,,,,,,,,,,,,,,,,,,,,,,,,,,,,,,,,,,,,,,,,,,,,,,,,,,,,,,,,,,,,,,,,,,,,,,,,,,,595945,001,2026-05-11_11h28.56.522,VAWM,,2026.1.3,60.01583217654687,2026-05-11 11h28.57.488074 -0500,
12,#00918A,#00BFB9,#007954,25.26,28.13,32.63,#A37221,#A04A00,#683100,44.26,26.88,48.23,sh,f,t,4,7,T08,T08,T08,stimuli/T08_asha.wav,stimuli/T08_afa.wav,stimuli/T08_ata.wav,m,z,b,1,5,T07,T07,T07,stimuli/T07_ama.wav,stimuli/T07_aza.wav,stimuli/T07_aba.wav,0,0,0,3,0.63,,,,,,,,,0,7,7,11,0,0,0,0,,,,,,,,,,,,,,,,,,,,,,,,,,,,,,,,,399.61535160000005,,,,,,,,,,,,,,,,,395.44827669999995,395.4621511,395.76213529999995,395.77899279999997,396.76294970000004,396.7798984,397.7639421,397.7640448666666,398.69807060000005,398.74812426666665,399.59884150000005,399.598922,399.60989329999995,399.61535160000005,399.9156027,399.9323002,399.9322693666667,,,400.76614200000006,no_response,2,stimuli/T08_afa.wav,#00918A,0,,,,,,1,,,,,,,,,,,3,0.63,,,,,,,,,,,,,,,,,,,,,,,595945,001,2026-05-11_11h28.56.522,VAWM,,2026.1.3,60.01583217654687,2026-05-11 11h28.57.488074 -0500,
12,#00918A,#00BFB9,#007954,25.26,28.13,32.63,#A37221,#A04A00,#683100,44.26,26.88,48.23,sh,f,t,4,7,T08,T08,T08,stimuli/T08_asha.wav,stimuli/T08_afa.wav,stimuli/T08_ata.wav,m,z,b,1,5,T07,T07,T07,stimuli/T07_ama.wav,stimuli/T07_aza.wav,stimuli/T07_aba.wav,1,0,1,3,0.766,,,,,,,,,0,7,7,11,1,0,1,0,,,,,,,,,,,,,,,,,,,,,,,,,,,,,,,,,400.7998777,,,,,,,,,,,,,,,,,,,,,,,,,,,,,400.79478389999997,400.7998777,401.0998783,401.11657909999997,401.11654496666665,401.96735590000003,,402.0842907,no_response,4,stimuli/T08_ata.wav,#00918A,1,,,,,,1,,,,,,,,,,,3,0.766,,,,,,,,,,,,,,,,,,,,,,,595945,001,2026-05-11_11h28.56.522,VAWM,,2026.1.3,60.01583217654687,2026-05-11 11h28.57.488074 -0500,
12,#00918A,#00BFB9,#007954,25.26,28.13,32.63,#A37221,#A04A00,#683100,44.26,26.88,48.23,sh,f,t,4,7,T08,T08,T08,stimuli/T08_asha.wav,stimuli/T08_afa.wav,stimuli/T08_ata.wav,m,z,b,1,5,T07,T07,T07,stimuli/T07_ama.wav,stimuli/T07_aza.wav,stimuli/T07_aba.wav,2,0,2,4,0.526,,,,,,,,,0,7,7,11,2,0,2,0,,,,,,,,,,,,,,,,,,,,,,,,,,,,,,,,,402.10078469999996,,,,,,,,,,,,,,,,,,,,,,,,,,,,,402.0866678,402.10078469999996,402.4009777,402.4175401,402.41764436666665,,,403.13493559999995,no_response,1,stimuli/T07_ama.wav,#A37221,2,,,,,,1,,,,,,,,,,,4,0.526,,,,,,,,,,,,,,,,,,,,,,,595945,001,2026-05-11_11h28.56.522,VAWM,,2026.1.3,60.01583217654687,2026-05-11 11h28.57.488074 -0500,
12,#00918A,#00BFB9,#007954,25.26,28.13,32.63,#A37221,#A04A00,#683100,44.26,26.88,48.23,sh,f,t,4,7,T08,T08,T08,stimuli/T08_asha.wav,stimuli/T08_afa.wav,stimuli/T08_ata.wav,m,z,b,1,5,T07,T07,T07,stimuli/T07_ama.wav,stimuli/T07_aza.wav,stimuli/T07_aba.wav,3,0,3,3,0.593,,,,,,,,,0,7,7,11,3,0,3,0,,,,,,,,,,,,,,,,,,,,,,,,,,,,,,,,,403.16836420000004,,,,,,,,,,,,,,,,,,,,,,,,,,,,,403.1556538,403.16836420000004,403.46850099999995,403.4852797,403.4851676666666,,,404.28577859999996,no_response,6,stimuli/T08_asha.wav,#00BFB9,3,,,,,,1,,,,,,,,,,,3,0.593,,,,,,,,,,,,,,,,,,,,,,,595945,001,2026-05-11_11h28.56.522,VAWM,,2026.1.3,60.01583217654687,2026-05-11 11h28.57.488074 -0500,
12,#00918A,#00BFB9,#007954,25.26,28.13,32.63,#A37221,#A04A00,#683100,44.26,26.88,48.23,sh,f,t,4,7,T08,T08,T08,stimuli/T08_asha.wav,stimuli/T08_afa.wav,stimuli/T08_ata.wav,m,z,b,1,5,T07,T07,T07,stimuli/T07_ama.wav,stimuli/T07_aza.wav,stimuli/T07_aba.wav,4,0,4,3,1.168,,,,,,,,,0,7,7,11,4,0,4,0,,,,,,,,,,,,,,,,,,,,,,,,,,,,,,,,,404.3191921,,,,,,,,,,,,,,,,,,,,,,,,,,,,,404.3075411,404.3191921,404.6195894,404.63636069999995,404.63625606666665,405.57037820000005,405.6369337,406.00394759999995,no_response,8,stimuli/T08_afa.wav,#00BFB9,4,,,,,,1,,,,,,,,,,,3,1.168,,,,,,,,,,,,,,,,,,,,,,,595945,001,2026-05-11_11h28.56.522,VAWM,,2026.1.3,60.01583217654687,2026-05-11 11h28.57.488074 -0500,
12,#00918A,#00BFB9,#007954,25.26,28.13,32.63,#A37221,#A04A00,#683100,44.26,26.88,48.23,sh,f,t,4,7,T08,T08,T08,stimuli/T08_asha.wav,stimuli/T08_afa.wav,stimuli/T08_ata.wav,m,z,b,1,5,T07,T07,T07,stimuli/T07_ama.wav,stimuli/T07_aza.wav,stimuli/T07_aba.wav,5,0,5,4,0.559,,,,,,,,,0,7,7,11,5,0,5,0,,,,,,,,,,,,,,,,,,,,,,,,,,,,,,,,,406.02040999999997,,,,,,,,,,,,,,,,,,,,,,,,,,,,,406.0060188,406.02040999999997,406.32107540000004,406.33773959999996,406.3377420666667,,,407.0882537,no_response,0,stimuli/T08_asha.wav,#00918A,5,,,,,,1,,,,,,,,,,,4,0.559,,,,,,,,,,,,,,,,,,,,,,,595945,001,2026-05-11_11h28.56.522,VAWM,,2026.1.3,60.01583217654687,2026-05-11 11h28.57.488074 -0500,
12,#00918A,#00BFB9,#007954,25.26,28.13,32.63,#A37221,#A04A00,#683100,44.26,26.88,48.23,sh,f,t,4,7,T08,T08,T08,stimuli/T08_asha.wav,stimuli/T08_afa.wav,stimuli/T08_ata.wav,m,z,b,1,5,T07,T07,T07,stimuli/T07_ama.wav,stimuli/T07_aza.wav,stimuli/T07_aba.wav,6,0,6,3,1.298,,,,,,,,,0,7,7,11,6,0,6,0,,,,,,,,,,,,,,,,,,,,,,,,,,,,,,,,,407.12170790000005,,,,,,,,,,,,,,,,,,,,,,,,,,,,,407.10275909999996,407.12170790000005,407.42175499999996,407.42175499999996,407.42187506666664,408.3560651,408.4224848,408.92317319999995,no_response,12,stimuli/T08_asha.wav,#007954,6,,,,,,1,,,,,,,,,,,3,1.298,,,,,,,,,,,,,,,,,,,,,,,595945,001,2026-05-11_11h28.56.522,VAWM,,2026.1.3,60.01583217654687,2026-05-11 11h28.57.488074 -0500,
12,#00918A,#00BFB9,#007954,25.26,28.13,32.63,#A37221,#A04A00,#683100,44.26,26.88,48.23,sh,f,t,4,7,T08,T08,T08,stimuli/T08_asha.wav,stimuli/T08_afa.wav,stimuli/T08_ata.wav,m,z,b,1,5,T07,T07,T07,stimuli/T07_ama.wav,stimuli/T07_aza.wav,stimuli/T07_aba.wav,7,0,7,3,0.975,,,,,,,,,0,7,7,11,7,0,7,0,,,,,,,,,,,,,,,,,,,,,,,,,,,,,,,,,408.9397096,,,,,,,,,,,,,,,,,,,,,,,,,,,,,408.9335191,408.9397096,409.24001050000004,409.2568254,409.2566771666667,410.15738650000003,410.25750689999995,410.42439320000005,no_response,11,stimuli/T07_aza.wav,#683100,7,,,,,,1,,,,,,,,,,,3,0.975,,,,,,,,,,,,,,,,,,,,,,,595945,001,2026-05-11_11h28.56.522,VAWM,,2026.1.3,60.01583217654687,2026-05-11 11h28.57.488074 -0500,
12,#00918A,#00BFB9,#007954,25.26,28.13,32.63,#A37221,#A04A00,#683100,44.26,26.88,48.23,sh,f,t,4,7,T08,T08,T08,stimuli/T08_asha.wav,stimuli/T08_afa.wav,stimuli/T08_ata.wav,m,z,b,1,5,T07,T07,T07,stimuli/T07_ama.wav,stimuli/T07_aza.wav,stimuli/T07_aba.wav,8,0,8,3,1.128,,,,,,,,,0,7,7,11,8,0,8,0,,,,,,,,,,,,,,,,,,,,,,,,,,,,,,,,,410.4409548,,,,,,,,,,,,,,,,,,,,,,,,,,,,,410.4272297,410.4409548,410.7411849,410.75786370000003,410.75785156666666,411.65862560000005,411.75870840000005,412.0758969,no_response,9,stimuli/T07_aza.wav,#A04A00,8,,,,,,1,,,,,,,,,,,3,1.128,,,,,,,,,,,,,,,,,,,,,,,595945,001,2026-05-11_11h28.56.522,VAWM,,2026.1.3,60.01583217654687,2026-05-11 11h28.57.488074 -0500,
12,#00918A,#00BFB9,#007954,25.26,28.13,32.63,#A37221,#A04A00,#683100,44.26,26.88,48.23,sh,f,t,4,7,T08,T08,T08,stimuli/T08_asha.wav,stimuli/T08_afa.wav,stimuli/T08_ata.wav,m,z,b,1,5,T07,T07,T07,stimuli/T07_ama.wav,stimuli/T07_aza.wav,stimuli/T07_aba.wav,7,7,0,,,,,,,,,,,0,7,7,11,,,,,,,,,,,,,,,,,,,,,,,,,,,,,,,,,,,,,,,,,,,,,,,,,,,,,,,,,,,,,,,,,,,,,,,,,,,,,,,,,,,,,,,,,,,,,,,,,,,,,,,,,,,,,,,,,,,,,,,595945,001,2026-05-11_11h28.56.522,VAWM,,2026.1.3,60.01583217654687,2026-05-11 11h28.57.488074 -0500,
2,#AF474A,#B06C22,#B35678,37.31,22.44,55.6,#0090C5,#0098C3,#82CBFF,37.11,25.69,53.08,s,eth,sh,1,57,T09,T09,T09,stimuli/T09_asa.wav,stimuli/T09_aetha.wav,stimuli/T09_asha.wav,b,n,z,4,19,T08,T08,T08,stimuli/T08_aba.wav,stimuli/T08_ana.wav,stimuli/T08_aza.wav,0,0,0,4,0.525,,,,,,,,,0,8,8,1,0,0,0,0,,,,,,,,,,,,,,,,,,,,,,,,,,,,,,,,,416.245808,,,,,,,,,,,,,,,,,412.09982479999996,412.1090424,412.4093997,412.42581170000005,413.41004510000005,413.42655019999995,414.4111276,414.4108869666667,415.34515050000005,415.41188406666663,416.2291464,416.22918419999996,416.2326346,416.245808,416.54571350000003,416.56265570000005,416.5623801666667,,,417.2800346,no_response,1,stimuli/T08_aba.wav,#0090C5,0,,,,,,1,,,,,,,,,,,4,0.525,,,,,,,,,,,,,,,,,,,,,,,595945,001,2026-05-11_11h28.56.522,VAWM,,2026.1.3,60.01583217654687,2026-05-11 11h28.57.488074 -0500,
2,#AF474A,#B06C22,#B35678,37.31,22.44,55.6,#0090C5,#0098C3,#82CBFF,37.11,25.69,53.08,s,eth,sh,1,57,T09,T09,T09,stimuli/T09_asa.wav,stimuli/T09_aetha.wav,stimuli/T09_asha.wav,b,n,z,4,19,T08,T08,T08,stimuli/T08_aba.wav,stimuli/T08_ana.wav,stimuli/T08_aza.wav,1,0,1,3,0.844,,,,,,,,,0,8,8,1,1,0,1,0,,,,,,,,,,,,,,,,,,,,,,,,,,,,,,,,,417.3134603,,,,,,,,,,,,,,,,,,,,,,,,,,,,,417.3068865,417.3134603,417.61356520000004,417.6303199,417.6302318666667,418.56425179999997,418.6309307,418.68102469999997,no_response,4,stimuli/T09_asha.wav,#AF474A,1,,,,,,1,,,,,,,,,,,3,0.844,,,,,,,,,,,,,,,,,,,,,,,595945,001,2026-05-11_11h28.56.522,VAWM,,2026.1.3,60.01583217654687,2026-05-11 11h28.57.488074 -0500,
2,#AF474A,#B06C22,#B35678,37.31,22.44,55.6,#0090C5,#0098C3,#82CBFF,37.11,25.69,53.08,s,eth,sh,1,57,T09,T09,T09,stimuli/T09_asa.wav,stimuli/T09_aetha.wav,stimuli/T09_asha.wav,b,n,z,4,19,T08,T08,T08,stimuli/T08_aba.wav,stimuli/T08_ana.wav,stimuli/T08_aza.wav,2,0,2,4,0.746,,,,,,,,,0,8,8,1,2,0,2,0,,,,,,,,,,,,,,,,,,,,,,,,,,,,,,,,,418.69765500000005,,,,,,,,,,,,,,,,,,,,,,,,,,,,,418.6829117,418.69765500000005,418.9979852,419.01476479999997,419.01465186666667,419.88189680000005,,419.9488368,no_response,9,stimuli/T08_ana.wav,#0098C3,2,,,,,,0,,,,,,,,,,,4,0.746,,,,,,,,,,,,,,,,,,,,,,,595945,001,2026-05-11_11h28.56.522,VAWM,,2026.1.3,60.01583217654687,2026-05-11 11h28.57.488074 -0500,
2,#AF474A,#B06C22,#B35678,37.31,22.44,55.6,#0090C5,#0098C3,#82CBFF,37.11,25.69,53.08,s,eth,sh,1,57,T09,T09,T09,stimuli/T09_asa.wav,stimuli/T09_aetha.wav,stimuli/T09_asha.wav,b,n,z,4,19,T08,T08,T08,stimuli/T08_aba.wav,stimuli/T08_ana.wav,stimuli/T08_aza.wav,3,0,3,4,0.999,,,,,,,,,0,8,8,1,3,0,3,0,,,,,,,,,,,,,,,,,,,,,,,,,,,,,,,,,419.96556239999995,,,,,,,,,,,,,,,,,,,,,,,,,,,,,419.95151669999996,419.96556239999995,420.26570130000005,420.28255149999995,420.2823679666667,421.0999759,421.2832764,421.46686650000004,no_response,1,stimuli/T08_aba.wav,#0090C5,3,,,,,,1,,,,,,,,,,,4,0.999,,,,,,,,,,,,,,,,,,,,,,,595945,001,2026-05-11_11h28.56.522,VAWM,,2026.1.3,60.01583217654687,2026-05-11 11h28.57.488074 -0500,
2,#AF474A,#B06C22,#B35678,37.31,22.44,55.6,#0090C5,#0098C3,#82CBFF,37.11,25.69,53.08,s,eth,sh,1,57,T09,T09,T09,stimuli/T09_asa.wav,stimuli/T09_aetha.wav,stimuli/T09_asha.wav,b,n,z,4,19,T08,T08,T08,stimuli/T08_aba.wav,stimuli/T08_ana.wav,stimuli/T08_aza.wav,4,0,4,3,0.725,,,,,,,,,0,8,8,1,4,0,4,0,,,,,,,,,,,,,,,,,,,,,,,,,,,,,,,,,421.48348910000004,,,,,,,,,,,,,,,,,,,,,,,,,,,,,421.4699772,421.48348910000004,421.783861,421.80020920000004,421.80052766666665,,,422.71777799999995,no_response,6,stimuli/T09_asa.wav,#B06C22,4,,,,,,1,,,,,,,,,,,3,0.725,,,,,,,,,,,,,,,,,,,,,,,595945,001,2026-05-11_11h28.56.522,VAWM,,2026.1.3,60.01583217654687,2026-05-11 11h28.57.488074 -0500,
