trial,condition,Response,RT,chanel,Acc
P,9,3,1.1508342,nonTT,1
P,4,4,0.9033191,nonTT,0
P,13,3,0.6439126,nonTT,1
P,6,3,0.6723114,nonTT,1
P,11,3,0.9978455,nonTT,1
P,0,3,1.0006241,TT,0
P,1,4,0.9174198,TT,1
P,2,3,1.2361627,nonTT,1
P,11,3,0.7837762,nonTT,1
T,1,3,1.8494421,TT,0
T,16,3,1.0169532,nonTT,1
T,7,3,1.1197413,nonTT,1
T,3,3,1.3786066,nonTT,1
T,5,4,1.3181873,nonTT,0
T,1,4,0.768206,TT,1
T,12,3,1.3328286,nonTT,1
T,14,3,0.8663014,nonTT,1
T,1,4,0.8843315,TT,1
T,4,3,1.1680107,nonTT,1
T,15,3,0.7662246,nonTT,1
T,6,4,1.6505163,nonTT,0
T,10,3,0.933545,nonTT,1
T,3,3,1.5330511,nonTT,1
T,12,3,1.1133984,nonTT,1
T,0,3,1.150849,TT,0
T,15,3,1.1800672,nonTT,1
T,12,3,0.9319413,nonTT,1
T,11,3,0.7509986,nonTT,1
T,1,3,0.7851753,TT,0
T,6,3,1.2826426,nonTT,1
T,2,3,0.9841185,nonTT,1
T,8,3,0.7672012,nonTT,1
T,0,4,1.3143497,TT,1
T,5,3,1.0835905,nonTT,1
T,14,3,1.0349394,nonTT,1
T,14,3,0.8328777,nonTT,1
T,0,4,1.2001504,TT,1
T,17,3,0.9325183,nonTT,1
T,1,3,1.1167541,TT,0
T,4,3,1.3022467,nonTT,1
T,6,3,0.6837977,nonTT,1
T,2,3,1.200523,nonTT,1
T,12,3,1.4333987,nonTT,1
T,14,3,1.5347419,nonTT,1
T,10,3,0.6023301,nonTT,1
T,1,4,1.0024375,TT,1
T,13,3,0.5502667,nonTT,1
T,5,3,1.2172962,nonTT,1
T,11,3,0.7835924,nonTT,1
T,7,3,0.9338757,nonTT,1
T,2,3,0.9845928,nonTT,1
T,0,4,1.2168488,TT,1
T,17,3,0.9157506,nonTT,1
T,15,3,0.4837987,nonTT,1
T,3,3,0.9021753,nonTT,1
T,17,3,0.9016211,nonTT,1
T,1,4,0.967606,TT,1
T,17,3,0.8178105,nonTT,1
T,13,3,0.6857265,nonTT,1
T,4,3,1.0144279,nonTT,1
T,7,3,0.9322557,nonTT,1
T,1,4,0.8321482,TT,1
T,16,3,0.8987288,nonTT,1
T,6,4,1.0576883,nonTT,0
T,12,3,0.7673571,nonTT,1
T,1,3,1.8303648,TT,0
T,1,3,0.8830156,TT,0
T,8,3,1.2836515,nonTT,1
T,3,3,1.4826124,nonTT,1
T,5,3,0.8339594,nonTT,1
T,8,3,1.0672822,nonTT,1
T,1,3,1.1190715,TT,0
T,4,3,1.6823645,nonTT,1
T,14,3,0.8330255,nonTT,1
T,3,3,1.15047,nonTT,1
T,0,4,1.6017575,TT,1
T,12,3,0.76757,nonTT,1
T,7,3,0.8679728,nonTT,1
T,10,3,0.9660051,nonTT,1
T,1,4,1.3343104,TT,1
T,16,3,0.8842153,nonTT,1
T,8,3,0.8987344,nonTT,1
T,11,3,1.2169222,nonTT,1
T,0,3,0.8588202,TT,0
T,2,3,1.2516983,nonTT,1
T,5,3,1.1837809,nonTT,1
T,13,3,1.1668104,nonTT,1
T,3,3,1.1508338,nonTT,1
T,9,3,0.8181222,nonTT,1
T,6,3,0.8998045,nonTT,1
T,11,3,1.5010605,nonTT,1
T,4,3,0.8653419,nonTT,1
T,8,3,0.8505956,nonTT,1
T,1,3,0.8994845,TT,0
T,12,3,0.7678006,nonTT,1
T,1,3,1.2325941,TT,0
T,10,3,1.5656156,nonTT,1
T,11,3,0.839071,nonTT,1
T,2,4,1.1498188,nonTT,0
T,8,3,1.0370545,nonTT,1
T,12,4,1.1186927,nonTT,0
T,7,3,0.8688238,nonTT,1
T,0,4,1.5497178,TT,1
T,0,4,0.9165707,TT,1
T,4,3,0.8837958,nonTT,1
T,1,4,1.5817607,TT,1
T,2,3,1.866197,nonTT,1
T,1,3,1.1324603,TT,0
T,15,3,0.7674365,nonTT,1
T,10,3,1.1538868,nonTT,1
T,16,3,0.8348758,nonTT,1
T,12,4,1.4818777,nonTT,0
T,4,3,0.7495308,nonTT,1
T,6,3,0.8168821,nonTT,1
T,7,4,0.6823352,nonTT,0
T,12,4,1.4844461,nonTT,0
T,1,3,1.0682072,TT,0
T,1,3,1.3992268,TT,0
T,9,4,1.1352879,nonTT,0
T,10,3,0.9825241,nonTT,1
T,9,3,1.1830317,nonTT,1
T,5,4,1.083193,nonTT,0
T,6,3,0.9034893,nonTT,1
T,1,3,1.0000073,TT,0
T,15,3,0.8999078,nonTT,1
T,2,3,1.1984622,nonTT,1
T,8,3,0.8487431,nonTT,1
T,10,3,0.8691401,nonTT,1
T,1,3,0.9666894,TT,0
T,13,3,1.1191538,nonTT,1
T,15,3,0.9995707,nonTT,1
T,11,3,0.6328023,nonTT,1
T,0,3,1.0843337,TT,0
T,10,3,0.8323166,nonTT,1
T,6,3,0.854358,nonTT,1
T,0,3,0.9826924,TT,0
T,12,3,0.7332493,nonTT,1
T,3,3,1.0119388,nonTT,1
T,13,3,0.7333596,nonTT,1
T,0,4,1.2500057,TT,1
T,11,3,0.6428268,nonTT,1
T,17,3,0.8151858,nonTT,1
T,9,3,0.5002225,nonTT,1
T,1,3,0.8001766,TT,0
T,2,3,0.8344922,nonTT,1
T,5,3,1.0814564,nonTT,1
T,6,3,1.5162914,nonTT,1
T,14,3,0.3663803,nonTT,1
T,0,4,1.1328389,TT,1
T,13,3,0.4167719,nonTT,1
T,5,3,1.4854615,nonTT,1
T,10,3,0.8657447,nonTT,1
T,0,4,1.2663075,TT,1
T,6,3,0.5086092,nonTT,1
T,16,4,1.4131721,nonTT,0
T,3,4,1.0187913,nonTT,0
T,10,3,0.8873763,nonTT,1
T,1,3,1.1669003,TT,0
T,9,3,1.1087636,nonTT,1
T,10,3,1.3841402,nonTT,1
T,2,3,1.8697945,nonTT,1
T,7,3,1.5493873,nonTT,1
T,0,3,1.5014649,TT,0
T,13,3,1.1330258,nonTT,1
T,5,3,1.0342554,nonTT,1
T,3,3,0.9161447,nonTT,1
T,8,3,0.8337035,nonTT,1
T,13,3,0.9345241,nonTT,1
T,5,3,1.0321332,nonTT,1
T,1,3,0.7337157,TT,0
T,14,3,0.8016304,nonTT,1
T,7,3,0.8182416,nonTT,1
T,15,3,0.7663037,nonTT,1
T,1,3,0.9155598,TT,0
T,11,3,0.9143717,nonTT,1
T,17,3,0.822009,nonTT,1
T,4,3,0.9671388,nonTT,1
T,13,4,1.2497102,nonTT,0
T,7,3,0.8358991,nonTT,1
T,0,4,0.9507705,TT,1
T,1,3,0.9167342,TT,0
T,2,3,0.9848925,nonTT,1
T,11,4,1.1504255,nonTT,0
T,15,3,1.6656075,nonTT,1
T,1,3,0.7183556,TT,0
T,0,4,1.1189752,TT,1
T,3,3,0.9306015,nonTT,1
T,17,3,0.8332861,nonTT,1
T,5,3,0.834548,nonTT,1
T,6,3,0.6652336,nonTT,1
T,13,3,0.9997546,nonTT,1
T,15,3,1.165231,nonTT,1
T,0,4,1.1168289,TT,1
T,3,3,0.8491787,nonTT,1
T,1,4,1.0344179,TT,1
T,17,3,0.6007608,nonTT,1
T,12,3,1.5657315,nonTT,1
T,7,3,0.8833782,nonTT,1
T,16,3,1.0016819,nonTT,1
T,10,3,0.7841269,nonTT,1
T,5,3,1.2682475,nonTT,1
T,5,3,1.9164758,nonTT,1
T,2,3,0.8845623,nonTT,1
T,0,4,1.1843525,TT,1
T,0,4,0.917984,TT,1
T,10,3,0.4969636,nonTT,1
T,17,3,0.9660365,nonTT,1
T,7,3,1.2397617,nonTT,1
T,12,3,0.8489857,nonTT,1
T,11,3,1.2019683,nonTT,1
T,1,3,1.7349125,TT,0
T,3,3,0.9197392,nonTT,1
T,1,3,1.5173462,TT,0
T,4,3,1.7513041,nonTT,1
T,9,3,1.3157908,nonTT,1
T,12,4,1.0994265,nonTT,0
T,8,3,0.7500337,nonTT,1
T,7,3,1.6486912,nonTT,1
T,16,3,1.1670192,nonTT,1
T,6,4,1.0679183,nonTT,0
T,9,3,0.7821541,nonTT,1
T,0,3,0.7839419,TT,0
T,17,3,1.033088,nonTT,1
T,12,4,1.0842792,nonTT,0
T,0,4,0.8180828,TT,1
T,5,3,0.7851873,nonTT,1
T,16,3,0.6341318,nonTT,1
T,2,3,0.8329495,nonTT,1
T,4,4,1.2836536,nonTT,0
T,17,3,0.8184945,nonTT,1
T,1,4,0.9998635,TT,1
T,12,3,1.0332742,nonTT,1
T,0,4,1.1841267,TT,1
T,9,3,0.6327713,nonTT,1
T,6,3,0.919063,nonTT,1
T,3,4,1.1488839,nonTT,0
T,14,3,1.1986488,nonTT,1
T,5,4,1.4833071,nonTT,0
T,11,3,0.7846451,nonTT,1
T,6,3,0.8590849,nonTT,1
T,8,3,0.7505147,nonTT,1
T,13,3,1.0335171,nonTT,1
T,0,4,1.2002269,TT,1
T,3,3,1.3825998,nonTT,1
T,9,3,0.8162833,nonTT,1
T,10,3,0.4824871,nonTT,1
T,8,3,0.5164756,nonTT,1
T,2,3,0.7983975,nonTT,1
T,13,3,0.7334284,nonTT,1
T,7,3,0.8329587,nonTT,1
T,5,3,0.7506877,nonTT,1
T,0,4,0.8306979,TT,1
T,11,3,0.8334704,nonTT,1
T,0,4,1.3999266,TT,1
T,3,3,1.1311406,nonTT,1
T,9,3,1.0500903,nonTT,1
T,1,4,1.0329762,TT,1
T,7,4,1.166993,nonTT,0
T,12,3,0.9503,nonTT,1
T,9,3,1.183649,nonTT,1
T,5,3,1.701148,nonTT,1
T,11,3,0.9355598,nonTT,1
T,1,3,0.9166836,TT,0
T,9,4,0.8826029,nonTT,0
T,9,3,0.0359773,nonTT,1
T,0,4,1.2504606,TT,1
T,3,3,0.8003877,nonTT,1
T,11,3,0.5977329,nonTT,1
T,12,4,1.016393,nonTT,0
T,6,3,0.5186237,nonTT,1
T,4,3,0.9176829,nonTT,1
T,1,4,1.8015746,TT,1
T,3,3,1.0320326,nonTT,1
T,0,3,1.448769,TT,0
T,0,4,1.0533491,TT,1
T,14,3,0.783928,nonTT,1
T,7,3,0.7326112,nonTT,1
T,4,4,1.8656924,nonTT,0
T,14,3,0.6850896,nonTT,1
T,12,3,1.0510022,nonTT,1
T,16,3,0.8839119,nonTT,1
T,2,3,0.7199923,nonTT,1
T,16,3,0.9991552,nonTT,1
T,0,4,1.1346013,TT,1
T,9,3,0.7332577,nonTT,1
T,4,3,1.1810113,nonTT,1
T,7,3,1.4346275,nonTT,1
T,1,4,1.4505576,TT,1
T,12,4,1.5498621,nonTT,0
T,8,3,0.8835399,nonTT,1
T,5,4,1.4170002,nonTT,0
T,17,3,1.0508076,nonTT,1
T,0,4,1.1680931,TT,1
T,7,3,0.8151654,nonTT,1
T,0,4,1.1525156,TT,1
T,12,3,0.8016507,nonTT,1
T,11,3,1.1001559,nonTT,1
T,3,3,0.9506246,nonTT,1
T,17,3,1.8866181,nonTT,1
T,17,3,0.8168067,nonTT,1
T,3,3,0.7502039,nonTT,1
T,0,3,0.8348097,TT,0
T,15,4,1.4170224,nonTT,0
T,0,3,0.9326985,TT,0
T,7,3,0.9667575,nonTT,1
T,12,3,0.8659595,nonTT,1
T,10,3,0.7677265,nonTT,1
T,5,3,1.0510093,nonTT,1
T,6,3,0.4710801,nonTT,1
T,12,3,0.664843,nonTT,1
T,5,4,1.5822623,nonTT,0
T,0,3,0.732682,TT,0
T,16,3,0.8849133,nonTT,1
T,0,3,1.7685269,TT,0
T,14,3,0.7489831,nonTT,1
T,3,3,1.2335887,nonTT,1
T,17,3,0.8517156,nonTT,1
T,3,3,1.0675923,nonTT,1
T,0,3,0.850373,TT,0
T,12,3,0.7834824,nonTT,1
T,7,3,0.8206858,nonTT,1
T,4,3,1.8503494,nonTT,1
T,11,3,0.9826736,nonTT,1
T,0,3,1.4324005,TT,0
T,17,3,1.5654975,nonTT,1
T,10,4,1.0812972,nonTT,0
T,1,4,0.9164281,TT,1
T,15,3,0.834103,nonTT,1
T,11,3,0.8685674,nonTT,1
T,3,3,0.8351404,nonTT,1
T,0,4,0.933415,TT,1
T,4,3,0.8500525,nonTT,1
T,7,3,0.8826361,nonTT,1
T,14,3,0.8676933,nonTT,1
T,12,3,0.8002455,nonTT,1
T,8,4,1.4857067,nonTT,0
T,7,3,1.0184367,nonTT,1
T,17,3,0.8014103,nonTT,1
T,0,3,1.4994737,TT,0
T,2,3,1.0002911,nonTT,1
T,16,4,0.9829712,nonTT,0
T,0,3,1.2688873,TT,0
T,12,3,0.9167297,nonTT,1
T,4,3,0.8781477,nonTT,1
T,4,3,0.6002008,nonTT,1
T,16,3,0.8335856,nonTT,1
T,1,3,1.0492385,TT,0
T,0,3,0.8861105,TT,0
T,7,3,0.8359725,nonTT,1
T,13,3,0.7160722,nonTT,1
T,15,3,0.7344389,nonTT,1
T,11,3,0.8651875,nonTT,1
T,3,3,0.9011867,nonTT,1
T,3,3,1.134653,nonTT,1
T,1,3,0.6993341,TT,0
T,14,3,0.7673357,nonTT,1
T,12,3,0.7348292,nonTT,1
T,1,4,1.4837863,TT,1
T,7,3,0.7175584,nonTT,1
T,17,3,0.768417,nonTT,1
T,16,3,1.1007188,nonTT,1
T,5,4,1.1695124,nonTT,0
T,9,3,1.1521705,nonTT,1
T,13,4,0.7840268,nonTT,0
T,0,3,0.966307,TT,0
T,3,3,0.6523088,nonTT,1
T,9,3,0.652331,nonTT,1
T,8,3,0.6827616,nonTT,1
T,1,3,1.0168092,TT,0
T,6,3,0.7000483,nonTT,1
T,5,3,1.2520771,nonTT,1
T,17,3,0.6010254,nonTT,1
T,17,3,0.6158187,nonTT,1
T,2,3,1.1342753,nonTT,1
T,4,3,0.8036474,nonTT,1
T,1,3,0.8649062,TT,0
T,13,3,0.7008473,nonTT,1
T,7,3,0.7317378,nonTT,1
T,15,3,0.7151474,nonTT,1
T,1,3,0.7357131,TT,0
T,10,3,1.583499,nonTT,1
T,0,3,0.7835778,TT,0
T,6,3,0.7352417,nonTT,1
T,2,3,1.2164389,nonTT,1
T,14,3,0.9688391,nonTT,1
T,1,4,0.9856681,TT,1
T,11,3,1.6651531,nonTT,1
T,13,3,1.2536648,nonTT,1
T,4,3,0.7660956,nonTT,1
T,15,3,1.3851911,nonTT,1
T,1,3,1.1998489,TT,0
T,3,3,1.6672971,nonTT,1
T,1,3,1.7999017,TT,0
T,6,3,0.9850205,nonTT,1
T,15,3,0.7668255,nonTT,1
T,5,3,0.8827881,nonTT,1
T,12,3,0.8018607,nonTT,1
T,9,3,1.0663103,nonTT,1
T,14,3,0.8506686,nonTT,1
T,4,3,0.7838981,nonTT,1
T,2,3,0.7162997,nonTT,1
T,14,3,0.966659,nonTT,1
T,6,3,0.7003886,nonTT,1
T,1,4,1.3336035,TT,1
T,1,4,1.3507539,TT,1
T,8,3,1.0984059,nonTT,1
T,12,3,1.1324123,nonTT,1
T,10,3,1.0341969,nonTT,1
T,13,3,0.6678717,nonTT,1
T,1,4,0.9510408,TT,1
T,0,3,1.2336527,TT,0
T,2,4,1.7990478,nonTT,0
T,8,3,0.7006046,nonTT,1
T,7,3,1.1013122,nonTT,1
T,17,3,0.8318864,nonTT,1
T,4,3,1.333903,nonTT,1
T,15,3,0.6683843,nonTT,1
T,11,3,0.5669724,nonTT,1
T,7,3,0.4180994,nonTT,1
T,4,3,0.8678185,nonTT,1
T,3,4,1.0153806,nonTT,0
T,13,3,0.6330497,nonTT,1
T,0,3,1.0674169,TT,0
T,0,3,0.8831471,TT,0
T,10,3,1.1503694,nonTT,1
T,1,4,1.1524827,TT,1
T,13,3,0.7993485,nonTT,1
T,1,3,1.150846,TT,0
T,8,3,1.4055889,nonTT,1
T,5,3,0.8999351,nonTT,1
T,9,3,0.8661708,nonTT,1
T,9,3,0.8167137,nonTT,1
T,7,3,1.1163394,nonTT,1
T,7,3,0.5318304,nonTT,1
T,13,3,0.7829154,nonTT,1
T,15,3,0.6154441,nonTT,1
T,4,3,0.8526575,nonTT,1
T,1,3,1.0180125,TT,0
T,3,3,0.9034395,nonTT,1
T,11,3,0.4830244,nonTT,1
T,1,3,1.4323367,TT,0
T,16,3,0.8376218,nonTT,1
T,1,3,0.6801875,TT,0
T,15,3,0.6503998,nonTT,1
T,7,3,0.7835399,nonTT,1
T,4,3,0.8683534,nonTT,1
T,12,3,0.7177797,nonTT,1
T,16,3,0.7499172,nonTT,1
T,3,3,0.8993762,nonTT,1
T,1,3,1.1655294,TT,0
T,14,3,0.7835058,nonTT,1
T,8,3,1.0694888,nonTT,1
T,1,4,1.332341,TT,1
T,1,4,1.00141,TT,1
T,7,3,0.5186209,nonTT,1
T,2,3,1.1829521,nonTT,1
T,14,3,0.8325935,nonTT,1
T,5,3,1.8483467,nonTT,1
T,12,3,0.8347921,nonTT,1
T,17,3,1.4591953,nonTT,1
T,7,3,0.5830844,nonTT,1
T,17,3,0.5481432,nonTT,1
T,3,3,0.732137,nonTT,1
T,11,3,0.716791,nonTT,1
T,1,3,1.183767,TT,0
T,0,3,1.7485843,TT,0
T,12,3,1.0327689,nonTT,1
T,5,3,1.4169212,nonTT,1
T,17,3,1.6326993,nonTT,1
T,11,3,0.6175126,nonTT,1
T,12,3,0.5680745,nonTT,1
T,0,3,0.6171843,TT,0
T,6,3,0.4173075,nonTT,1
T,1,4,1.4515295,TT,1
T,5,4,1.4832933,nonTT,0
T,16,3,0.9330088,nonTT,1
T,16,3,0.8324431,nonTT,1
T,3,3,1.2845124,nonTT,1
T,12,3,1.710448,nonTT,1
T,14,3,0.9658622,nonTT,1
T,3,3,1.6497897,nonTT,1
T,1,4,1.1336599,TT,1
T,4,3,0.9830484,nonTT,1
T,1,3,1.1001067,TT,0
T,11,3,0.8182922,nonTT,1
T,6,3,0.8339391,nonTT,1
T,10,3,0.8025503,nonTT,1
T,10,3,0.5682926,nonTT,1
T,9,3,0.9012057,nonTT,1
T,13,3,0.7811011,nonTT,1
T,4,3,1.0324084,nonTT,1
T,7,3,0.9167893,nonTT,1
T,15,3,0.6666541,nonTT,1
T,0,4,0.8013381,TT,1
T,1,3,0.9494883,TT,0
T,3,4,0.6832787,nonTT,0
T,2,3,0.6987743,nonTT,1
T,0,4,0.7991186,TT,1
T,4,4,0.8673246,nonTT,0
T,6,3,0.7161792,nonTT,1
T,15,3,0.8031653,nonTT,1
T,15,3,1.5006519,nonTT,1
T,1,3,0.9840711,TT,0
T,16,3,1.0491658,nonTT,1
T,12,3,0.8513516,nonTT,1
T,15,3,0.7499127,nonTT,1
T,13,3,0.6501201,nonTT,1
T,3,3,0.9000623,nonTT,1
T,5,3,0.8007944,nonTT,1
T,14,3,1.3989974,nonTT,1
T,14,3,1.8841707,nonTT,1
T,1,3,1.1857499,TT,0
T,7,3,1.2843955,nonTT,1
T,11,3,1.8651096,nonTT,1
T,8,3,1.2012287,nonTT,1
T,5,3,0.7002924,nonTT,1
T,11,3,0.6837406,nonTT,1
T,1,4,1.9401647,TT,1
T,6,4,0.7996267,nonTT,0
T,12,3,0.6662604,nonTT,1
T,3,4,1.4024711,nonTT,0
T,0,3,0.7011368,TT,0
T,7,3,0.7168863,nonTT,1
T,3,3,0.5675012,nonTT,1
T,1,3,0.5639085,TT,0
T,8,3,0.8168273,nonTT,1
T,0,3,0.6825582,TT,0
T,8,3,0.7676142,nonTT,1
T,4,4,0.949468,nonTT,0
T,12,3,1.3826636,nonTT,1
T,9,3,0.6679639,nonTT,1
T,3,3,0.93458,nonTT,1
T,15,3,0.8003635,nonTT,1
T,1,3,0.8669606,TT,0
T,1,3,1.1152167,TT,0
T,14,3,0.9842951,nonTT,1
T,6,4,0.81826,nonTT,0
T,9,3,0.8160956,nonTT,1
T,5,3,1.383906,nonTT,1
T,12,3,1.2991648,nonTT,1
T,15,4,1.7855763,nonTT,0
T,12,3,1.5356735,nonTT,1
T,4,3,1.3156166,nonTT,1
T,9,3,0.816691,nonTT,1
T,0,3,1.0832183,TT,0
T,3,3,0.9194988,nonTT,1
T,7,3,0.8177001,nonTT,1
T,16,3,1.0178683,nonTT,1
T,0,3,1.4029643,TT,0
T,4,3,0.9012229,nonTT,1
T,1,4,1.1837661,TT,1
T,10,4,1.9651194,nonTT,0
T,17,3,0.8026082,nonTT,1
T,3,3,0.9805682,nonTT,1
T,10,4,1.865646,nonTT,0
T,7,3,0.7371985,nonTT,1
T,12,3,1.0630135,nonTT,1
T,0,3,0.6672239,TT,0
T,8,3,0.4843133,nonTT,1
T,9,3,0.4665742,nonTT,1
T,9,3,0.3668692,nonTT,1
T,4,4,1.4143532,nonTT,0
T,1,3,1.0326582,TT,0
T,0,4,0.8496931,TT,1
T,7,3,0.6820803,nonTT,1
T,12,3,0.7004974,nonTT,1
T,2,3,0.883326,nonTT,1
T,0,3,0.949706,TT,0
T,7,3,0.699881,nonTT,1
T,3,3,0.6013178,nonTT,1
T,10,3,0.7175471,nonTT,1
T,15,3,0.8505464,nonTT,1
T,8,3,0.786518,nonTT,1
T,13,3,1.3837673,nonTT,1
T,1,3,1.8680913,TT,0
T,2,3,1.4496227,nonTT,1
T,8,3,1.3327882,nonTT,1
T,5,3,1.6319459,nonTT,1
T,13,3,1.7504206,nonTT,1
T,7,3,0.7671755,nonTT,1
T,1,3,0.8828763,TT,0
T,14,3,0.9481559,nonTT,1
T,1,4,1.419149,TT,1
T,14,3,1.0987536,nonTT,1
T,10,3,1.0328816,nonTT,1
T,13,3,0.9500069,nonTT,1
T,3,3,1.0504218,nonTT,1
T,11,3,0.6006764,nonTT,1
T,1,4,1.6506373,TT,1
T,1,4,1.0205451,TT,1
T,6,3,0.8010977,nonTT,1
T,17,3,1.615678,nonTT,1
T,5,3,0.9019041,nonTT,1
T,13,4,1.1003835,nonTT,0
T,1,4,1.1664366,TT,1
T,11,3,1.3337947,nonTT,1
T,6,3,1.8011107,nonTT,1
T,14,3,1.1162235,nonTT,1
T,2,3,0.8677419,nonTT,1
T,10,3,0.6643796,nonTT,1
T,5,4,1.0498449,nonTT,0
T,1,3,1.1000277,TT,0
T,7,3,0.6002911,nonTT,1
T,17,3,0.7652186,nonTT,1
T,5,3,0.8845333,nonTT,1
T,3,4,0.8678593,nonTT,0
T,13,3,0.98818,nonTT,1
T,1,3,0.9856868,TT,0
T,0,3,1.1483731,TT,0
T,14,3,1.5514663,nonTT,1
T,9,3,0.8328858,nonTT,1
T,15,3,0.8672707,nonTT,1
T,3,3,1.4817667,nonTT,1
T,5,3,1.3008124,nonTT,1
T,12,3,1.0982469,nonTT,1
T,17,4,1.1658834,nonTT,0
T,7,4,1.6335804,nonTT,0
T,10,3,1.6348207,nonTT,1
T,1,4,1.5522632,TT,1
T,1,4,0.8494876,TT,1
T,1,3,1.4164813,TT,0
T,3,3,0.8805218,nonTT,1
T,11,3,0.5830333,nonTT,1
T,17,3,1.2694425,nonTT,1
T,6,4,0.9848726,nonTT,0
T,13,4,1.1663998,nonTT,0
T,0,3,0.8499159,TT,0
T,5,4,1.3165208,nonTT,0
T,4,4,0.8659307,nonTT,0
T,0,4,0.9323892,TT,1
T,15,4,1.0500029,nonTT,0
T,17,4,1.1338276,nonTT,0
T,0,3,1.1834638,TT,0
T,6,4,1.9008154,nonTT,0
T,8,3,0.8176811,nonTT,1
T,2,3,0.7668712,nonTT,1
T,12,3,0.7496293,nonTT,1
T,5,3,0.9531943,nonTT,1
T,6,3,1.231555,nonTT,1
T,15,3,0.8334741,nonTT,1
T,1,4,0.951768,TT,1
T,3,4,0.9839985,nonTT,0
T,13,3,0.7167344,nonTT,1
T,0,3,1.1665634,TT,0
T,8,3,0.6845025,nonTT,1
T,8,3,0.8997461,nonTT,1
T,8,3,0.4678739,nonTT,1
T,4,4,0.9156932,nonTT,0
T,14,3,0.9845166,nonTT,1
T,13,4,0.8340636,nonTT,0
T,0,4,1.1673412,TT,1
T,16,3,0.7312409,nonTT,1
T,3,3,1.0993434,nonTT,1
T,1,3,1.0354278,TT,0
T,7,3,0.7848854,nonTT,1
T,2,3,0.6997415,nonTT,1
T,5,3,0.8648442,nonTT,1
T,6,3,1.2515024,nonTT,1
T,12,3,0.783357,nonTT,1
T,16,3,1.0514234,nonTT,1
T,11,3,0.8669219,nonTT,1
T,0,3,0.8851281,TT,0
T,15,3,0.9009455,nonTT,1
T,0,3,1.422828,TT,0
T,3,3,0.8829764,nonTT,1
T,16,3,0.7169949,nonTT,1
T,0,3,0.6683264,TT,0
T,5,3,0.9152383,nonTT,1
T,7,3,0.5992906,nonTT,1
T,0,4,1.1834812,TT,1
T,8,3,0.7335428,nonTT,1
T,17,3,0.7507761,nonTT,1
T,12,3,1.1841996,nonTT,1
T,2,4,1.3005291,nonTT,0
T,7,4,1.6672067,nonTT,0
T,0,4,1.399615,TT,1
T,12,3,0.7686516,nonTT,1
T,10,3,0.7670471,nonTT,1
T,11,3,0.6175031,nonTT,1
T,4,3,0.9658323,nonTT,1
T,17,3,0.7489878,nonTT,1
T,1,3,0.8685178,TT,0
T,0,3,0.9661804,TT,0
T,8,3,0.6830601,nonTT,1
T,12,3,0.8506108,nonTT,1
T,9,3,0.8163142,nonTT,1
T,16,3,0.8350315,nonTT,1
T,6,3,1.1663423,nonTT,1
T,1,4,0.9672604,TT,1
T,2,3,0.6852735,nonTT,1
T,4,3,0.6503129,nonTT,1
T,0,4,0.7669705,TT,1
T,2,3,0.9159292,nonTT,1
T,7,4,1.2168129,nonTT,0
T,17,3,0.5317479,nonTT,1
T,1,3,0.8834757,TT,0
T,13,3,1.034616,nonTT,1
T,4,3,0.9500692,nonTT,1
T,10,3,0.582461,nonTT,1
T,8,3,0.5822338,nonTT,1
T,15,3,0.7355023,nonTT,1
T,13,4,0.7349613,nonTT,0
T,3,3,0.7835863,nonTT,1
T,8,4,1.1169268,nonTT,0
T,0,4,0.7668608,TT,1
T,6,3,0.7674653,nonTT,1
T,0,4,1.0501478,TT,1
T,4,4,1.7146117,nonTT,0
T,10,3,0.502233,nonTT,1
T,0,3,0.8987818,TT,0
T,7,3,0.7342613,nonTT,1
T,10,3,0.9351733,nonTT,1
T,5,3,0.6315815,nonTT,1
T,10,3,0.9165505,nonTT,1
T,13,4,0.9836696,nonTT,0
T,0,3,0.7988751,TT,0
T,2,3,1.1337179,nonTT,1
T,17,3,0.8835169,nonTT,1
T,7,3,0.7162089,nonTT,1
T,16,3,0.6148963,nonTT,1
T,9,3,0.698956,nonTT,1
T,8,3,0.8167688,nonTT,1
T,1,3,0.769906,TT,0
T,3,3,0.8025193,nonTT,1
T,0,3,1.4188368,TT,0
T,13,3,0.7824987,nonTT,1
T,4,3,0.7998446,nonTT,1
T,0,3,0.9658464,TT,0
T,13,3,0.803289,nonTT,1
T,3,3,0.6471548,nonTT,1
T,11,3,0.7000518,nonTT,1
T,4,3,0.7327293,nonTT,1
T,7,3,0.6832256,nonTT,1
T,15,3,0.6652635,nonTT,1
T,0,3,0.7337651,TT,0
T,15,3,1.5005772,nonTT,1
T,14,4,0.9679495,nonTT,0
T,16,3,0.6820381,nonTT,1
T,3,3,0.8493301,nonTT,1
T,0,3,0.6848408,TT,0
T,7,4,0.8685962,nonTT,0
T,8,3,0.8491662,nonTT,1
T,12,3,0.7507762,nonTT,1
T,4,3,1.3509056,nonTT,1
T,1,3,1.4833654,TT,0
T,12,4,0.9833263,nonTT,0
T,9,4,0.981945,nonTT,0
T,10,3,0.7174137,nonTT,1
T,0,3,1.0334931,TT,0
T,6,3,0.78418,nonTT,1
T,3,3,0.7167655,nonTT,1
T,1,3,1.6169105,TT,0
T,4,3,0.784337,nonTT,1
T,7,3,0.7164964,nonTT,1
T,3,3,1.7999003,nonTT,1
T,1,3,0.8334328,TT,0
T,1,4,1.1663455,TT,1
T,4,3,0.9332909,nonTT,1
T,12,3,0.8992645,nonTT,1
T,17,3,1.4833755,nonTT,1
T,14,3,1.350202,nonTT,1
T,15,3,1.2004732,nonTT,1
T,0,3,0.8174694,TT,0
T,8,4,1.0162235,nonTT,0
T,13,3,0.9165981,nonTT,1
T,6,4,1.1326489,nonTT,0
T,15,3,0.8154967,nonTT,1
T,1,3,1.0327349,TT,0
T,5,3,0.9862636,nonTT,1
T,2,3,1.1663019,nonTT,1
T,16,3,1.2176043,nonTT,1
T,1,3,1.2846177,TT,0
T,7,3,0.8356394,nonTT,1
T,13,3,0.7345037,nonTT,1
T,5,3,1.2998239,nonTT,1
T,9,3,0.4995707,nonTT,1
T,17,3,1.0173467,nonTT,1
T,2,3,1.1146544,nonTT,1
T,14,4,1.1362156,nonTT,0
T,14,4,0.8847474,nonTT,0
T,6,3,0.8004203,nonTT,1
T,17,3,0.9491228,nonTT,1
T,1,3,0.7934125,TT,0
T,3,3,1.2017607,nonTT,1
T,12,4,0.9997048,nonTT,0
T,5,4,1.1850265,nonTT,0
T,0,4,1.0509477,TT,1
T,17,3,1.0351987,nonTT,1
T,9,3,1.7669193,nonTT,1
T,13,3,0.782104,nonTT,1
T,1,3,0.3984258,TT,0
T,5,4,1.019282,nonTT,0
T,1,4,1.7002196,TT,1
T,6,3,1.5010941,nonTT,1
T,9,3,0.8673517,nonTT,1
T,3,3,0.7662603,nonTT,1
T,17,3,1.2018766,nonTT,1
T,15,3,0.7213555,nonTT,1
T,4,4,0.6627705,nonTT,0
T,13,3,1.1329001,nonTT,1
T,0,4,1.2339834,TT,1
T,14,4,1.4012781,nonTT,0
T,17,3,0.852836,nonTT,1
T,0,3,1.1180809,TT,0
T,7,4,1.2357524,nonTT,0
T,2,3,0.9990974,nonTT,1
T,2,3,1.7182696,nonTT,1
T,10,3,1.0016735,nonTT,1
T,4,3,1.1003106,nonTT,1
T,6,3,0.7487007,nonTT,1
T,0,3,1.6657575,TT,0
T,0,3,1.214187,TT,0
T,9,3,1.7346672,nonTT,1
T,15,4,0.9519426,nonTT,0
T,4,3,0.3846912,nonTT,1
T,17,4,0.832588,nonTT,0
T,2,3,1.2497426,nonTT,1
T,0,3,1.1659723,TT,0
T,13,3,1.1001244,nonTT,1
T,1,4,1.3997513,TT,1
T,17,3,1.0009551,nonTT,1
T,9,4,1.0837885,nonTT,0
T,7,3,1.1324602,nonTT,1
T,1,4,1.0177455,TT,1
T,7,3,0.816947,nonTT,1
T,11,3,0.8666894,nonTT,1
T,4,3,0.750814,nonTT,1
T,0,3,0.8169845,TT,0
T,16,3,1.3007179,nonTT,1
T,12,3,0.7353249,nonTT,1
T,16,4,1.0840147,nonTT,0
T,3,3,0.6524699,nonTT,1
T,2,3,1.0845274,nonTT,1
T,8,3,1.6165371,nonTT,1
T,5,3,0.7181702,nonTT,1
T,15,3,0.7198109,nonTT,1
T,10,3,0.7830576,nonTT,1
T,6,3,1.0499594,nonTT,1
T,13,3,1.4331982,nonTT,1
T,1,3,0.5017034,TT,0
T,1,3,0.7670947,TT,0
T,1,4,1.4513495,TT,1
T,4,4,1.6351123,nonTT,0
T,13,4,1.5002306,nonTT,0
T,3,3,0.6681328,nonTT,1
T,17,3,1.1143457,nonTT,1
T,0,3,1.0708512,TT,0
T,16,4,1.4500046,nonTT,0
T,14,3,1.0183922,nonTT,1
T,6,3,0.6494459,nonTT,1
T,13,4,0.9513666,nonTT,0
T,8,3,0.7164509,nonTT,1
T,7,4,1.216287,nonTT,0
T,0,3,0.7824854,TT,0
T,4,4,1.1156156,nonTT,0
T,16,3,0.8229003,nonTT,1
T,2,3,0.7845221,nonTT,1
T,9,3,1.086726,nonTT,1
T,0,3,1.1821271,TT,0
T,13,3,0.9183714,nonTT,1
T,14,3,0.7002979,nonTT,1
T,10,3,0.6859509,nonTT,1
T,0,4,0.7326076,TT,1
T,15,4,1.3498663,nonTT,0
T,4,3,0.7504008,nonTT,1
T,7,3,1.3009637,nonTT,1
T,1,4,1.5356526,TT,1
T,3,3,0.7845126,nonTT,1
T,0,3,1.5173908,TT,0
T,3,3,0.3184773,nonTT,1
T,13,3,1.4504764,nonTT,1
T,7,3,1.6180877,nonTT,1
T,8,3,1.4324426,nonTT,1
T,11,3,1.617931,nonTT,1
T,11,3,1.066232,nonTT,1
T,5,3,1.0178803,nonTT,1
T,1,3,0.7673296,TT,0
T,0,3,1.248858,TT,0
T,13,3,0.9004889,nonTT,1
T,6,4,1.3873003,nonTT,0
T,14,3,0.7514802,nonTT,1
T,0,3,0.7354995,TT,0
T,4,3,0.9159356,nonTT,1
T,2,3,0.6056762,nonTT,1
T,17,4,1.0163933,nonTT,0
T,8,3,0.8003291,nonTT,1
T,1,3,0.8176954,TT,0
T,8,3,0.8990977,nonTT,1
T,10,3,0.8834334,nonTT,1
T,13,3,0.7155729,nonTT,1
T,4,3,1.1175731,nonTT,1
T,1,3,0.7813154,TT,0
T,6,4,0.8340463,nonTT,0
T,10,3,0.9158672,nonTT,1
T,7,3,0.9502676,nonTT,1
T,0,3,1.4323217,TT,0
T,2,3,1.1329074,nonTT,1
T,17,3,1.3982153,nonTT,1
T,17,3,1.04972,nonTT,1
T,4,3,0.8668197,nonTT,1
T,12,3,1.4673928,nonTT,1
T,6,4,0.733194,nonTT,0
T,1,3,0.6821478,TT,0
T,3,3,0.7679873,nonTT,1
T,11,4,1.6997602,nonTT,0
T,16,4,0.7835066,nonTT,0
T,12,3,0.805391,nonTT,1
T,1,3,1.2659641,TT,0
T,10,4,1.1320007,nonTT,0
T,5,3,0.7194762,nonTT,1
T,6,4,1.0847504,nonTT,0
T,5,3,0.8850882,nonTT,1
T,14,3,0.9831126,nonTT,1
T,10,3,0.8681511,nonTT,1
T,13,3,1.0674952,nonTT,1
T,1,3,0.9861549,TT,0
T,1,3,0.8814313,TT,0
T,17,4,1.1635239,nonTT,0
T,2,3,1.134693,nonTT,1
T,15,4,0.801517,nonTT,0
T,0,3,1.0184114,TT,0
T,7,3,1.6188746,nonTT,1
T,10,3,1.100374,nonTT,1
T,3,3,1.367322,nonTT,1
T,5,3,1.5037116,nonTT,1
T,12,4,1.5028965,nonTT,0
T,1,3,0.6980748,TT,0
T,15,3,0.9848189,nonTT,1
T,4,3,0.8987818,nonTT,1
T,17,3,0.7342613,nonTT,1
T,3,3,0.9351733,nonTT,1
T,1,3,0.6315815,TT,0
T,16,3,0.9165505,nonTT,1
T,0,4,0.9836696,TT,1
T,7,3,0.7988751,nonTT,1
T,13,3,1.1337179,nonTT,1
T,8,3,0.8835169,nonTT,1
T,15,3,0.7162089,nonTT,1
T,15,3,0.6148963,nonTT,1
T,4,3,0.698956,nonTT,1
T,8,3,0.8167688,nonTT,1
T,6,3,0.769906,nonTT,1
T,0,3,0.8025193,TT,0
T,3,3,1.4188368,nonTT,1
T,13,3,0.7824987,nonTT,1
T,0,3,0.7998446,TT,0
T,2,3,0.9658464,nonTT,1
T,12,3,0.803289,nonTT,1
T,0,3,0.6471548,TT,0
T,9,3,0.7000518,nonTT,1
T,9,3,0.7327293,nonTT,1
T,17,3,0.6832256,nonTT,1
T,1,3,0.6652635,TT,0
T,6,3,0.7337651,nonTT,1
T,5,3,1.5005772,nonTT,1
T,1,4,0.9679495,TT,1
T,7,3,0.6820381,nonTT,1
T,5,3,0.8493301,nonTT,1
T,10,3,0.6848408,nonTT,1
T,1,4,0.8685962,TT,1
T,14,3,0.8491662,nonTT,1
T,8,3,0.7507762,nonTT,1
T,3,3,1.3509056,nonTT,1
T,12,3,1.4833654,nonTT,1
T,12,4,0.9833263,nonTT,0
T,10,4,0.981945,nonTT,0
T,5,3,0.7174137,nonTT,1
T,2,3,1.0334931,nonTT,1
T,0,3,0.78418,TT,0
T,0,3,0.7167655,TT,0
T,9,3,1.6169105,nonTT,1
T,8,3,0.784337,nonTT,1
T,12,3,0.7164964,nonTT,1
T,5,3,1.7999003,nonTT,1
T,11,3,0.8334328,nonTT,1
T,0,4,1.1663455,TT,1
T,2,3,0.9332909,nonTT,1
T,6,3,0.8992645,nonTT,1
T,10,3,1.4833755,nonTT,1
T,15,3,1.350202,nonTT,1
T,0,3,1.2004732,TT,0
T,15,3,0.8174694,nonTT,1
T,0,4,1.0162235,TT,1
T,11,3,0.9165981,nonTT,1
T,0,4,1.1326489,TT,1
T,10,3,0.8154967,nonTT,1
T,5,3,1.0327349,nonTT,1
T,2,3,0.9862636,nonTT,1
T,12,3,1.1663019,nonTT,1
T,7,3,1.2176043,nonTT,1
T,14,3,1.2846177,nonTT,1
T,15,3,0.8356394,nonTT,1
T,9,3,0.7345037,nonTT,1
T,1,3,1.2998239,TT,0
T,13,3,0.4995707,nonTT,1
T,2,3,1.0173467,nonTT,1
T,6,3,1.1146544,nonTT,1
T,1,4,1.1362156,TT,1
T,2,4,0.8847474,nonTT,0
T,8,3,0.8004203,nonTT,1
T,17,3,0.9491228,nonTT,1
T,11,3,0.7934125,nonTT,1
T,4,3,1.2017607,nonTT,1
T,0,4,0.9997048,TT,1
T,1,4,1.1850265,TT,1
T,13,4,1.0509477,nonTT,0
T,6,3,1.0351987,nonTT,1
T,14,3,1.7669193,nonTT,1
T,9,3,0.782104,nonTT,1
T,7,3,0.3984258,nonTT,1
T,0,4,1.019282,TT,1
T,0,4,1.7002196,TT,1
T,12,3,1.5010941,nonTT,1
T,16,3,0.8673517,nonTT,1
T,2,3,0.7662603,nonTT,1
T,4,3,1.2018766,nonTT,1
T,4,3,0.7213555,nonTT,1
T,1,4,0.6627705,TT,1
T,14,3,1.1329001,nonTT,1
T,0,4,1.2339834,TT,1
T,3,4,1.4012781,nonTT,0
T,13,3,0.852836,nonTT,1
T,7,3,1.1180809,nonTT,1
T,9,4,1.2357524,nonTT,0
T,9,3,0.9990974,nonTT,1
T,3,3,1.7182696,nonTT,1
T,12,3,1.0016735,nonTT,1
T,4,3,1.1003106,nonTT,1
T,9,3,0.7487007,nonTT,1
T,0,3,1.6657575,TT,0
T,0,3,1.214187,TT,0
T,9,3,1.7346672,nonTT,1
T,6,4,0.9519426,nonTT,0
T,13,3,0.3846912,nonTT,1
T,1,4,0.832588,TT,1
T,4,3,1.2497426,nonTT,1
T,3,3,1.1659723,nonTT,1
T,6,3,1.1001244,nonTT,1
T,1,4,1.3997513,TT,1
T,11,3,1.0009551,nonTT,1
T,8,4,1.0837885,nonTT,0
T,14,3,1.1324602,nonTT,1
T,0,4,1.0177455,TT,1
T,3,3,0.816947,nonTT,1
T,5,3,0.8666894,nonTT,1
T,10,3,0.750814,nonTT,1
T,17,3,0.8169845,nonTT,1
T,0,3,1.3007179,TT,0
T,10,3,0.7353249,nonTT,1
T,13,4,1.0840147,nonTT,0
T,7,3,0.6524699,nonTT,1
T,10,3,1.0845274,nonTT,1
T,13,3,1.6165371,nonTT,1
T,9,3,0.7181702,nonTT,1
T,7,3,0.7198109,nonTT,1
T,15,3,0.7830576,nonTT,1
T,4,3,1.0499594,nonTT,1
T,1,3,1.4331982,TT,0
T,3,3,0.5017034,nonTT,1
T,1,3,0.7670947,TT,0
T,1,4,1.4513495,TT,1
T,5,4,1.6351123,nonTT,0
T,11,4,1.5002306,nonTT,0
T,3,3,0.6681328,nonTT,1
T,14,3,1.1143457,nonTT,1
T,8,3,1.0708512,nonTT,1
T,1,4,1.4500046,TT,1
T,12,3,1.0183922,nonTT,1
T,6,3,0.6494459,nonTT,1
T,1,4,0.9513666,TT,1
T,6,3,0.7164509,nonTT,1
T,4,4,1.216287,nonTT,0
T,9,3,0.7824854,nonTT,1
T,12,4,1.1156156,nonTT,0
T,1,3,0.8229003,TT,0
T,16,3,0.7845221,nonTT,1
T,9,3,1.086726,nonTT,1
T,3,3,1.1821271,nonTT,1
T,4,3,0.9183714,nonTT,1
T,6,3,0.7002979,nonTT,1
T,8,3,0.6859509,nonTT,1
T,0,4,0.7326076,TT,1
T,3,4,1.3498663,nonTT,0
T,14,3,0.7504008,nonTT,1
T,15,3,1.3009637,nonTT,1
T,1,4,1.5356526,TT,1
T,13,3,0.7845126,nonTT,1
T,6,3,1.5173908,nonTT,1
T,9,3,0.3184773,nonTT,1
T,2,3,1.4504764,nonTT,1
T,5,3,1.6180877,nonTT,1
T,8,3,1.4324426,nonTT,1
T,9,3,1.617931,nonTT,1
T,0,3,1.066232,TT,0
T,12,3,1.0178803,nonTT,1
T,0,3,0.7673296,TT,0
T,8,3,1.248858,nonTT,1
T,12,3,0.9004889,nonTT,1
T,0,4,1.3873003,TT,1
T,6,3,0.7514802,nonTT,1
T,2,3,0.7354995,nonTT,1
T,4,3,0.9159356,nonTT,1
T,16,3,0.6056762,nonTT,1
T,1,4,1.0163933,TT,1
T,17,3,0.8003291,nonTT,1
T,7,3,0.8176954,nonTT,1
T,16,3,0.8990977,nonTT,1
T,8,3,0.8834334,nonTT,1
T,12,3,0.7155729,nonTT,1
T,4,3,1.1175731,nonTT,1
T,2,3,0.7813154,nonTT,1
T,1,4,0.8340463,TT,1
T,14,3,0.9158672,nonTT,1
T,5,3,0.9502676,nonTT,1
T,9,3,1.4323217,nonTT,1
T,3,3,1.1329074,nonTT,1
T,14,3,1.3982153,nonTT,1
T,12,3,1.04972,nonTT,1
T,8,3,0.8668197,nonTT,1
T,7,3,1.4673928,nonTT,1
T,7,4,0.733194,nonTT,0
T,16,3,0.6821478,nonTT,1
T,5,3,0.7679873,nonTT,1
T,2,4,1.6997602,nonTT,0
T,1,4,0.7835066,TT,1
T,15,3,0.805391,nonTT,1
T,16,3,1.2659641,nonTT,1
T,0,4,1.1320007,TT,1
T,13,3,0.7194762,nonTT,1
T,11,4,1.0847504,nonTT,0
T,7,3,0.8850882,nonTT,1
T,1,3,0.9831126,TT,0
T,1,3,0.8681511,TT,0
T,17,3,1.0674952,nonTT,1
T,16,3,0.9861549,nonTT,1
T,13,3,0.8814313,nonTT,1
T,2,4,1.1635239,nonTT,0
T,4,3,1.134693,nonTT,1
T,0,4,0.801517,TT,1
T,6,3,1.0184114,nonTT,1
T,2,3,1.6188746,nonTT,1
T,14,3,1.100374,nonTT,1
T,5,3,1.367322,nonTT,1
T,8,3,1.5037116,nonTT,1
T,0,4,1.5028965,TT,1
T,16,3,0.6980748,nonTT,1
T,12,3,0.9848189,nonTT,1
