trial,condition,TargetA,TargetC,Response,RT,Acc,thisRepN,block
3,9,stimuli/T07_aga.wav,#007CED,3,,1,0,p
3,4,stimuli/T04_aetha.wav,#A77FC9,4,,0,1,p
3,13,stimuli/T07_ana.wav,#00366B,3,,1,2,p
3,6,stimuli/T04_ava.wav,#FFC5FF,3,,1,3,p
3,11,stimuli/T07_aga.wav,#00366B,3,,1,4,p
3,0,stimuli/T04_ava.wav,#A77FC9,3,,0,5,p
3,1,stimuli/T07_ana.wav,#0079B7,4,,1,6,p
3,2,stimuli/T04_ama.wav,#A77FC9,3,,1,7,p
3,11,stimuli/T07_aga.wav,#00366B,3,,1,8,p
5,1,stimuli/T10_aza.wav,#009E85,3,,0,1,p
5,16,stimuli/T07_apa.wav,#004DC9,3,,1,2,p
5,7,stimuli/T10_aza.wav,#00D882,3,,1,3,p
5,3,stimuli/T10_asa.wav,#009E85,3,,1,4,p
5,5,stimuli/T10_azha.wav,#009E85,4,,0,5,p
5,1,stimuli/T10_aza.wav,#009E85,4,,1,6,p
5,12,stimuli/T07_ata.wav,#004DC9,3,,1,7,p
5,14,stimuli/T07_apa.wav,#FF98E0,3,,1,8,p
4,1,stimuli/T12_athetaa.wav,#3D62C6,4,,1,0,p
4,4,stimuli/T04_athetaa.wav,#008484,3,,1,1,p
4,15,stimuli/T12_apa.wav,#925A82,3,,1,2,p
4,6,stimuli/T04_asha.wav,#0091DC,4,,0,3,p
4,10,stimuli/T04_ama.wav,#007D68,3,,1,4,p
4,3,stimuli/T12_ada.wav,#3D62C6,3,,1,5,p
4,12,stimuli/T04_asha.wav,#007D68,3,,1,6,p
4,0,stimuli/T04_asha.wav,#008484,3,,0,7,p
4,15,stimuli/T12_apa.wav,#925A82,3,,1,8,p
2,12,stimuli/T12_afa.wav,#0097EF,3,,1,0,p
2,11,stimuli/T07_aba.wav,#944D31,3,,1,1,p
2,1,stimuli/T07_ada.wav,#DA5C51,3,,0,2,p
2,6,stimuli/T12_afa.wav,#002E70,3,,1,3,p
2,2,stimuli/T12_asha.wav,#0071BA,3,,1,4,p
2,8,stimuli/T12_asha.wav,#002E70,3,,1,5,p
2,0,stimuli/T12_afa.wav,#0071BA,4,,1,6,p
2,5,stimuli/T07_azha.wav,#DA5C51,3,,1,7,p
2,14,stimuli/T12_athetaa.wav,#002E70,3,,1,8,p
1,14,stimuli/T02_aba.wav,#002C21,3,,1,0,p
1,0,stimuli/T02_ama.wav,#008470,4,,1,1,p
1,17,stimuli/T03_ada.wav,#874613,3,,1,2,p
1,1,stimuli/T03_ava.wav,#C3704D,3,,0,3,p
1,4,stimuli/T02_aba.wav,#008470,3,,1,4,p
1,6,stimuli/T02_ama.wav,#002C21,3,,1,5,p
1,2,stimuli/T02_athetaa.wav,#008470,3,,1,6,p
1,12,stimuli/T02_ama.wav,#00BBBF,3,,1,7,p
1,14,stimuli/T02_aba.wav,#002C21,3,,1,8,p
17,10,stimuli/T01_aba.wav,#005A86,3,0.6023301,1,0,t
17,1,stimuli/T02_asa.wav,#2474C7,4,1.0024375,1,1,t
17,13,stimuli/T02_asa.wav,#87B6FF,3,0.5502667,1,2,t
17,5,stimuli/T02_afa.wav,#2474C7,3,1.2172962,1,3,t
17,11,stimuli/T02_ana.wav,#87B6FF,3,0.7835924,1,4,t
17,7,stimuli/T02_asa.wav,#0079B6,3,0.9338757,1,5,t
17,2,stimuli/T01_aba.wav,#007FB0,3,0.9845928,1,6,t
17,0,stimuli/T01_apa.wav,#007FB0,4,1.2168488,1,7,t
17,17,stimuli/T02_afa.wav,#87B6FF,3,0.9157506,1,8,t
3,15,stimuli/T04_aetha.wav,#00A5BD,3,0.4837987,1,0,t
3,3,stimuli/T04_aba.wav,#0082C0,3,0.9021753,1,1,t
3,17,stimuli/T04_aetha.wav,#015877,3,0.9016211,1,2,t
3,1,stimuli/T04_ada.wav,#0082C0,4,0.967606,1,3,t
3,17,stimuli/T04_aetha.wav,#015877,3,0.8178105,1,4,t
3,13,stimuli/T04_ada.wav,#015877,3,0.6857265,1,5,t
3,4,stimuli/T03_apa.wav,#BA4D74,3,1.0144279,1,6,t
3,7,stimuli/T04_ada.wav,#00A5BD,3,0.9322557,1,7,t
3,1,stimuli/T04_ada.wav,#0082C0,4,0.8321482,1,8,t
7,16,stimuli/T12_asha.wav,#008B46,3,0.8987288,1,1,t
7,6,stimuli/T12_asa.wav,#388A82,4,1.0576883,0,2,t
7,12,stimuli/T12_asa.wav,#008B46,3,0.7673571,1,3,t
7,1,stimuli/T04_apa.wav,#876523,3,1.8303648,0,4,t
7,1,stimuli/T04_apa.wav,#876523,3,0.8830156,0,5,t
7,8,stimuli/T12_ana.wav,#388A82,3,1.2836515,1,6,t
7,3,stimuli/T04_aba.wav,#876523,3,1.4826124,1,7,t
7,5,stimuli/T04_aka.wav,#876523,3,0.8339594,1,8,t
15,8,stimuli/T08_asa.wav,#DB57D6,3,1.0672822,1,0,t
15,1,stimuli/T12_azha.wav,#D17655,3,1.1190715,0,1,t
15,4,stimuli/T08_aza.wav,#CD66A5,3,1.6823645,1,2,t
15,14,stimuli/T08_aza.wav,#DB57D6,3,0.8330255,1,3,t
15,3,stimuli/T12_aba.wav,#D17655,3,1.15047,1,4,t
15,0,stimuli/T08_aetha.wav,#CD66A5,4,1.6017575,1,5,t
15,12,stimuli/T08_aetha.wav,#8F5DA8,3,0.76757,1,6,t
15,7,stimuli/T12_azha.wav,#BF7791,3,0.8679728,1,7,t
15,10,stimuli/T08_asa.wav,#8F5DA8,3,0.9660051,1,8,t
11,1,stimuli/T01_azha.wav,#CA603C,4,1.3343104,1,1,t
11,16,stimuli/T10_ada.wav,#B37C20,3,0.8842153,1,2,t
11,8,stimuli/T10_ama.wav,#3E9F8C,3,0.8987344,1,3,t
11,11,stimuli/T01_aba.wav,#DB9080,3,1.2169222,1,4,t
11,0,stimuli/T10_ava.wav,#93923E,3,0.8588202,0,5,t
11,2,stimuli/T10_ama.wav,#93923E,3,1.2516983,1,6,t
11,5,stimuli/T01_ada.wav,#CA603C,3,1.1837809,1,7,t
11,13,stimuli/T01_azha.wav,#DB9080,3,1.1668104,1,8,t
5,3,stimuli/T03_ama.wav,#99497B,3,1.1508338,1,0,t
5,9,stimuli/T03_ama.wav,#FFA6AA,3,0.8181222,1,1,t
5,6,stimuli/T08_ana.wav,#009E00,3,0.8998045,1,2,t
5,11,stimuli/T03_ama.wav,#C263B4,3,1.5010605,1,3,t
5,4,stimuli/T08_ama.wav,#6B8E2F,3,0.8653419,1,4,t
5,8,stimuli/T08_azha.wav,#009E00,3,0.8505956,1,5,t
5,1,stimuli/T03_aga.wav,#99497B,3,0.8994845,0,6,t
5,12,stimuli/T08_ana.wav,#006610,3,0.7678006,1,7,t
5,1,stimuli/T03_aga.wav,#99497B,3,1.2325941,0,8,t
25,10,stimuli/T06_athetaa.wav,#BF369E,3,1.5656156,1,0,t
25,11,stimuli/T04_aetha.wav,#448C70,3,0.839071,1,1,t
25,2,stimuli/T06_athetaa.wav,#B05990,4,1.1498188,0,2,t
25,8,stimuli/T06_athetaa.wav,#5E165F,3,1.0370545,1,3,t
25,12,stimuli/T06_ada.wav,#BF369E,4,1.1186927,0,4,t
25,7,stimuli/T04_asa.wav,#767F00,3,0.8688238,1,5,t
25,0,stimuli/T06_ada.wav,#B05990,4,1.5497178,1,6,t
25,0,stimuli/T06_ada.wav,#B05990,4,0.9165707,1,7,t
25,4,stimuli/T06_aga.wav,#B05990,3,0.8837958,1,8,t
12,1,stimuli/T07_ama.wav,#A37221,4,1.5817607,1,0,t
12,2,stimuli/T08_afa.wav,#00918A,3,1.866197,1,1,t
12,1,stimuli/T07_ama.wav,#A37221,3,1.1324603,0,2,t
12,15,stimuli/T07_aba.wav,#A04A00,3,0.7674365,1,3,t
12,10,stimuli/T08_afa.wav,#007954,3,1.1538868,1,4,t
12,16,stimuli/T08_ata.wav,#007954,3,0.8348758,1,5,t
12,12,stimuli/T08_asha.wav,#007954,4,1.4818777,0,6,t
12,4,stimuli/T08_ata.wav,#00918A,3,0.7495308,1,7,t
12,6,stimuli/T08_asha.wav,#00BFB9,3,0.8168821,1,8,t
2,7,stimuli/T08_aba.wav,#0098C3,4,0.6823352,0,1,t
2,12,stimuli/T09_asa.wav,#B35678,4,1.4844461,0,2,t
2,1,stimuli/T08_aba.wav,#0090C5,3,1.0682072,0,3,t
2,1,stimuli/T08_aba.wav,#0090C5,3,1.3992268,0,4,t
2,9,stimuli/T08_ana.wav,#0098C3,4,1.1352879,0,5,t
2,10,stimuli/T09_aetha.wav,#B35678,3,0.9825241,1,6,t
2,9,stimuli/T08_ana.wav,#0098C3,3,1.1830317,1,7,t
2,5,stimuli/T08_aza.wav,#0090C5,4,1.083193,0,8,t
23,6,stimuli/T05_ava.wav,#6E8E6D,3,0.9034893,1,1,t
23,1,stimuli/T08_ata.wav,#468F4F,3,1.0000073,0,2,t
23,15,stimuli/T08_apa.wav,#63D07F,3,0.8999078,1,3,t
23,2,stimuli/T05_asa.wav,#779028,3,1.1984622,1,4,t
23,8,stimuli/T05_asa.wav,#6E8E6D,3,0.8487431,1,5,t
23,10,stimuli/T05_asa.wav,#325E00,3,0.8691401,1,6,t
23,1,stimuli/T08_ata.wav,#468F4F,3,0.9666894,0,7,t
23,13,stimuli/T08_ata.wav,#18583B,3,1.1191538,1,8,t
16,15,stimuli/T06_aka.wav,#936D00,3,0.9995707,1,1,t
16,11,stimuli/T06_aga.wav,#54391A,3,0.6328023,1,2,t
16,0,stimuli/T04_ama.wav,#0088BA,3,1.0843337,0,3,t
16,10,stimuli/T04_aza.wav,#006DC1,3,0.8323166,1,4,t
16,6,stimuli/T04_ama.wav,#00667A,3,0.854358,1,5,t
16,0,stimuli/T04_ama.wav,#0088BA,3,0.9826924,0,6,t
16,12,stimuli/T04_ama.wav,#006DC1,3,0.7332493,1,7,t
16,3,stimuli/T06_aga.wav,#8B5423,3,1.0119388,1,8,t
19,13,stimuli/T10_aga.wav,#004960,3,0.7333596,1,0,t
19,0,stimuli/T07_aba.wav,#00997F,4,1.2500057,1,1,t
19,11,stimuli/T10_ama.wav,#004960,3,0.6428268,1,2,t
19,17,stimuli/T10_ada.wav,#004960,3,0.8151858,1,3,t
19,9,stimuli/T10_ama.wav,#6CC2C7,3,0.5002225,1,4,t
19,1,stimuli/T10_aga.wav,#007AB6,3,0.8001766,0,5,t
19,2,stimuli/T07_azha.wav,#00997F,3,0.8344922,1,6,t
19,5,stimuli/T10_ada.wav,#007AB6,3,1.0814564,1,7,t
19,6,stimuli/T07_aba.wav,#00779D,3,1.5162914,1,8,t
9,14,stimuli/T07_athetaa.wav,#E2AFFF,3,0.3663803,1,0,t
9,0,stimuli/T07_asa.wav,#875EC0,4,1.1328389,1,1,t
9,13,stimuli/T04_ata.wav,#003E8F,3,0.4167719,1,2,t
9,5,stimuli/T04_apa.wav,#0069BB,3,1.4854615,1,3,t
9,10,stimuli/T07_azha.wav,#7B8DFC,3,0.8657447,1,4,t
9,0,stimuli/T07_asa.wav,#875EC0,4,1.2663075,1,5,t
9,6,stimuli/T07_asa.wav,#E2AFFF,3,0.5086092,1,6,t
9,16,stimuli/T07_athetaa.wav,#7B8DFC,4,1.4131721,0,7,t
9,3,stimuli/T04_aetha.wav,#0069BB,4,1.0187913,0,8,t
24,10,stimuli/T08_aba.wav,#FE9840,3,0.8873763,1,0,t
24,1,stimuli/T07_aetha.wav,#28863D,3,1.1669003,0,1,t
24,9,stimuli/T07_athetaa.wav,#00411C,3,1.1087636,1,2,t
24,10,stimuli/T08_aba.wav,#FE9840,3,1.3841402,1,3,t
24,2,stimuli/T08_aba.wav,#B06C1B,3,1.8697945,1,4,t
24,7,stimuli/T07_aetha.wav,#00411C,3,1.5493873,1,5,t
24,0,stimuli/T08_azha.wav,#B06C1B,3,1.5014649,0,6,t
24,13,stimuli/T07_aetha.wav,#005C1A,3,1.1330258,1,7,t
24,5,stimuli/T07_aza.wav,#28863D,3,1.0342554,1,8,t
14,3,stimuli/T07_athetaa.wav,#A03F7B,3,0.9161447,1,0,t
14,8,stimuli/T11_azha.wav,#291800,3,0.8337035,1,1,t
14,13,stimuli/T07_ada.wav,#712F3F,3,0.9345241,1,2,t
14,5,stimuli/T07_azha.wav,#A03F7B,3,1.0321332,1,3,t
14,1,stimuli/T07_ada.wav,#A03F7B,3,0.7337157,0,4,t
14,14,stimuli/T11_aza.wav,#291800,3,0.8016304,1,5,t
14,7,stimuli/T07_ada.wav,#C189B1,3,0.8182416,1,6,t
14,15,stimuli/T07_azha.wav,#C189B1,3,0.7663037,1,7,t
14,1,stimuli/T07_ada.wav,#A03F7B,3,0.9155598,0,8,t
13,11,stimuli/T10_asha.wav,#00657B,3,0.9143717,1,0,t
13,17,stimuli/T10_ava.wav,#00657B,3,0.822009,1,1,t
13,4,stimuli/T12_apa.wav,#74741E,3,0.9671388,1,2,t
13,13,stimuli/T10_aza.wav,#00657B,4,1.2497102,0,3,t
13,7,stimuli/T10_aza.wav,#004E53,3,0.8358991,1,4,t
13,0,stimuli/T12_ata.wav,#74741E,4,0.9507705,1,5,t
13,1,stimuli/T10_aza.wav,#009AA9,3,0.9167342,0,6,t
13,2,stimuli/T12_aga.wav,#74741E,3,0.9848925,1,7,t
13,11,stimuli/T10_asha.wav,#00657B,4,1.1504255,0,8,t
10,15,stimuli/T05_afa.wav,#0084E3,3,1.6656075,1,0,t
10,1,stimuli/T05_athetaa.wav,#007A9F,3,0.7183556,0,1,t
10,0,stimuli/T08_aka.wav,#C66841,4,1.1189752,1,2,t
10,3,stimuli/T05_ana.wav,#007A9F,3,0.9306015,1,3,t
10,17,stimuli/T05_afa.wav,#4D7096,3,0.8332861,1,4,t
10,5,stimuli/T05_afa.wav,#007A9F,3,0.834548,1,5,t
10,6,stimuli/T08_aka.wav,#C0BD7F,3,0.6652336,1,6,t
10,13,stimuli/T05_athetaa.wav,#4D7096,3,0.9997546,1,7,t
10,15,stimuli/T05_afa.wav,#0084E3,3,1.165231,1,8,t
22,0,stimuli/T05_ana.wav,#00975B,4,1.1168289,1,0,t
22,3,stimuli/T02_ana.wav,#009EAA,3,0.8491787,1,1,t
22,1,stimuli/T02_afa.wav,#009EAA,4,1.0344179,1,2,t
22,17,stimuli/T02_athetaa.wav,#00CDEE,3,0.6007608,1,3,t
22,12,stimuli/T05_ana.wav,#50E294,3,1.5657315,1,4,t
22,7,stimuli/T02_afa.wav,#003345,3,0.8833782,1,5,t
22,16,stimuli/T05_aza.wav,#50E294,3,1.0016819,1,6,t
22,10,stimuli/T05_azha.wav,#50E294,3,0.7841269,1,7,t
22,5,stimuli/T02_athetaa.wav,#009EAA,3,1.2682475,1,8,t
4,5,stimuli/T10_aba.wav,#008FAF,3,1.9164758,1,0,t
4,2,stimuli/T06_ama.wav,#D863A9,3,0.8845623,1,1,t
4,0,stimuli/T06_asha.wav,#D863A9,4,1.1843525,1,2,t
4,0,stimuli/T06_asha.wav,#D863A9,4,0.917984,1,3,t
4,10,stimuli/T06_ama.wav,#C57187,3,0.4969636,1,4,t
4,17,stimuli/T10_aba.wav,#00566C,3,0.9660365,1,5,t
4,7,stimuli/T10_ama.wav,#00A4DD,3,1.2397617,1,6,t
4,12,stimuli/T06_asha.wav,#C57187,3,0.8489857,1,7,t
4,11,stimuli/T10_athetaa.wav,#00566C,3,1.2019683,1,8,t
8,1,stimuli/T04_ava.wav,#007A55,3,1.7349125,0,0,t
8,3,stimuli/T04_ama.wav,#007A55,3,0.9197392,1,1,t
8,1,stimuli/T04_ava.wav,#007A55,3,1.5173462,0,2,t
8,4,stimuli/T06_asa.wav,#009E95,3,1.7513041,1,3,t
8,9,stimuli/T04_ama.wav,#005A5B,3,1.3157908,1,4,t
8,12,stimuli/T06_afa.wav,#32966C,4,1.0994265,0,5,t
8,8,stimuli/T06_ana.wav,#00FFFF,3,0.7500337,1,6,t
8,7,stimuli/T04_ava.wav,#005A5B,3,1.6486912,1,7,t
8,16,stimuli/T06_asa.wav,#32966C,3,1.1670192,1,8,t
1,6,stimuli/T05_ada.wav,#007355,4,1.0679183,0,0,t
1,9,stimuli/T03_aba.wav,#3A8E2E,3,0.7821541,1,1,t
1,0,stimuli/T05_ada.wav,#009D8E,3,0.7839419,0,2,t
1,17,stimuli/T03_aza.wav,#7C8400,3,1.033088,1,3,t
1,12,stimuli/T05_ada.wav,#28A09F,4,1.0842792,0,4,t
1,0,stimuli/T05_ada.wav,#009D8E,4,0.8180828,1,5,t
1,5,stimuli/T03_aza.wav,#516700,3,0.7851873,1,6,t
1,16,stimuli/T05_azha.wav,#28A09F,3,0.6341318,1,7,t
1,2,stimuli/T05_aba.wav,#009D8E,3,0.8329495,1,8,t
6,4,stimuli/T04_aetha.wav,#CA7242,4,1.2836536,0,0,t
6,17,stimuli/T10_afa.wav,#9E5800,3,0.8184945,1,1,t
6,1,stimuli/T10_aka.wav,#986112,4,0.9998635,1,2,t
6,12,stimuli/T04_ava.wav,#AD5800,3,1.0332742,1,3,t
6,0,stimuli/T04_ava.wav,#CA7242,4,1.1841267,1,4,t
6,9,stimuli/T10_aga.wav,#B63700,3,0.6327713,1,5,t
6,6,stimuli/T04_ava.wav,#BFA784,3,0.919063,1,6,t
6,3,stimuli/T10_aga.wav,#986112,4,1.1488839,0,7,t
6,14,stimuli/T04_aetha.wav,#BFA784,3,1.1986488,1,8,t
21,5,stimuli/T03_aka.wav,#009ED6,4,1.4833071,0,0,t
21,11,stimuli/T03_aga.wav,#00BDCC,3,0.7846451,1,2,t
21,6,stimuli/T12_asha.wav,#210000,3,0.8590849,1,3,t
21,8,stimuli/T12_ama.wav,#210000,3,0.7505147,1,4,t
21,13,stimuli/T03_ata.wav,#00BDCC,3,1.0335171,1,5,t
21,0,stimuli/T12_asha.wav,#9E481D,4,1.2002269,1,6,t
21,3,stimuli/T03_aga.wav,#009ED6,3,1.3825998,1,7,t
21,9,stimuli/T03_aga.wav,#426061,3,0.8162833,1,8,t
18,10,stimuli/T06_asa.wav,#E6A43A,3,0.4824871,1,0,t
18,8,stimuli/T06_asa.wav,#938533,3,0.5164756,1,1,t
18,2,stimuli/T06_asa.wav,#BA651E,3,0.7983975,1,2,t
18,13,stimuli/T05_azha.wav,#920229,3,0.7334284,1,3,t
18,7,stimuli/T05_azha.wav,#BF87B3,3,0.8329587,1,4,t
18,5,stimuli/T05_aga.wav,#A0444F,3,0.7506877,1,5,t
18,0,stimuli/T06_ava.wav,#BA651E,4,0.8306979,1,6,t
18,11,stimuli/T05_asa.wav,#920229,3,0.8334704,1,7,t
18,0,stimuli/T06_ava.wav,#BA651E,4,1.3999266,1,8,t
20,3,stimuli/T07_ana.wav,#0096B0,3,1.1311406,1,0,t
20,9,stimuli/T07_ana.wav,#00AAE1,3,1.0500903,1,1,t
20,1,stimuli/T07_asa.wav,#0096B0,4,1.0329762,1,2,t
20,7,stimuli/T07_asa.wav,#00AAE1,4,1.166993,0,3,t
20,12,stimuli/T09_ama.wav,#F177CA,3,0.9503,1,4,t
20,9,stimuli/T07_ana.wav,#00AAE1,3,1.183649,1,5,t
20,5,stimuli/T07_asha.wav,#0096B0,3,1.701148,1,6,t
20,11,stimuli/T07_ana.wav,#53CAE8,3,0.9355598,1,7,t
20,1,stimuli/T07_asa.wav,#0096B0,3,0.9166836,0,8,t
17,9,stimuli/T01_aetha.wav,#0087FC,4,0.8826029,0,0,t
17,9,stimuli/T01_aetha.wav,#0087FC,3,0.0359773,1,1,t
17,0,stimuli/T11_asa.wav,#C74650,4,1.2504606,1,2,t
17,3,stimuli/T01_aetha.wav,#0083C9,3,0.8003877,1,3,t
17,11,stimuli/T01_aetha.wav,#004F90,3,0.5977329,1,4,t
17,12,stimuli/T11_asa.wav,#BB004B,4,1.016393,0,5,t
17,6,stimuli/T11_asa.wav,#922655,3,0.5186237,1,6,t
17,4,stimuli/T11_asha.wav,#C74650,3,0.9176829,1,7,t
17,1,stimuli/T01_ata.wav,#0083C9,4,1.8015746,1,8,t
3,3,stimuli/T08_aga.wav,#229369,3,1.0320326,1,0,t
3,0,stimuli/T07_asha.wav,#9F578B,3,1.448769,0,1,t
3,0,stimuli/T07_asha.wav,#9F578B,4,1.0533491,1,2,t
3,14,stimuli/T07_ata.wav,#B10034,3,0.783928,1,3,t
3,7,stimuli/T08_ata.wav,#4D7217,3,0.7326112,1,4,t
3,4,stimuli/T07_ata.wav,#9F578B,4,1.8656924,0,5,t
3,14,stimuli/T07_ata.wav,#B10034,3,0.6850896,1,6,t
3,12,stimuli/T07_asha.wav,#653853,3,1.0510022,1,7,t
3,16,stimuli/T07_ata.wav,#653853,3,0.8839119,1,8,t
7,2,stimuli/T09_azha.wav,#007C99,3,0.7199923,1,0,t
7,16,stimuli/T09_afa.wav,#00958F,3,0.9991552,1,1,t
7,0,stimuli/T09_asa.wav,#007C99,4,1.1346013,1,2,t
7,9,stimuli/T10_aga.wav,#87C6C9,3,0.7332577,1,3,t
7,4,stimuli/T09_afa.wav,#007C99,3,1.1810113,1,4,t
7,7,stimuli/T10_ana.wav,#87C6C9,3,1.4346275,1,5,t
7,1,stimuli/T10_ana.wav,#00756F,4,1.4505576,1,6,t
7,12,stimuli/T09_asa.wav,#00958F,4,1.5498621,0,7,t
7,8,stimuli/T09_azha.wav,#004721,3,0.8835399,1,8,t
15,5,stimuli/T04_apa.wav,#886D0B,4,1.4170002,0,0,t
15,17,stimuli/T04_apa.wav,#B96C01,3,1.0508076,1,1,t
15,0,stimuli/T12_aetha.wav,#1B7217,4,1.1680931,1,2,t
15,7,stimuli/T04_aka.wav,#CDAF88,3,0.8151654,1,3,t
15,0,stimuli/T12_aetha.wav,#1B7217,4,1.1525156,1,4,t
15,12,stimuli/T12_aetha.wav,#003500,3,0.8016507,1,5,t
15,11,stimuli/T04_aga.wav,#B96C01,3,1.1001559,1,6,t
15,3,stimuli/T04_aga.wav,#886D0B,3,0.9506246,1,7,t
15,17,stimuli/T04_apa.wav,#B96C01,3,1.8866181,1,8,t
11,17,stimuli/T10_athetaa.wav,#0050C4,3,0.8168067,1,0,t
11,3,stimuli/T10_ada.wav,#6C8BE6,3,0.7502039,1,1,t
11,0,stimuli/T08_afa.wav,#008DA7,3,0.8348097,0,2,t
11,15,stimuli/T10_athetaa.wav,#0099FF,4,1.4170224,0,3,t
11,0,stimuli/T08_afa.wav,#008DA7,3,0.9326985,0,4,t
11,7,stimuli/T10_apa.wav,#0099FF,3,0.9667575,1,5,t
11,12,stimuli/T08_afa.wav,#00608D,3,0.8659595,1,6,t
11,10,stimuli/T08_aga.wav,#00608D,3,0.7677265,1,7,t
11,5,stimuli/T10_athetaa.wav,#6C8BE6,3,1.0510093,1,8,t
5,6,stimuli/T07_ada.wav,#B95068,3,0.4710801,1,0,t
5,12,stimuli/T07_ada.wav,#E05AAF,3,0.664843,1,1,t
5,5,stimuli/T10_asha.wav,#007680,4,1.5822623,0,2,t
5,0,stimuli/T07_ada.wav,#9C4F91,3,0.732682,0,3,t
5,16,stimuli/T07_aetha.wav,#E05AAF,3,0.8849133,1,4,t
5,0,stimuli/T07_ada.wav,#9C4F91,3,1.7685269,0,5,t
5,14,stimuli/T07_aetha.wav,#B95068,3,0.7489831,1,6,t
5,3,stimuli/T10_aetha.wav,#007680,3,1.2335887,1,7,t
5,17,stimuli/T10_asha.wav,#00AEAA,3,0.8517156,1,8,t
25,3,stimuli/T03_azha.wav,#744D9F,3,1.0675923,1,0,t
25,0,stimuli/T04_aetha.wav,#00865B,3,0.850373,0,1,t
25,12,stimuli/T04_aetha.wav,#61BA77,3,0.7834824,1,2,t
25,7,stimuli/T03_ana.wav,#002548,3,0.8206858,1,3,t
25,4,stimuli/T04_aza.wav,#00865B,3,1.8503494,1,4,t
25,11,stimuli/T03_azha.wav,#933F81,3,0.9826736,1,5,t
25,0,stimuli/T04_aetha.wav,#00865B,3,1.4324005,0,6,t
25,17,stimuli/T03_aza.wav,#933F81,3,1.5654975,1,7,t
25,10,stimuli/T04_athetaa.wav,#61BA77,4,1.0812972,0,8,t
12,1,stimuli/T02_ava.wav,#A8502C,4,0.9164281,1,0,t
12,15,stimuli/T02_aza.wav,#650F00,3,0.834103,1,1,t
12,11,stimuli/T02_ama.wav,#D8555C,3,0.8685674,1,2,t
12,3,stimuli/T02_ama.wav,#A8502C,3,0.8351404,1,3,t
12,0,stimuli/T11_asha.wav,#158757,4,0.933415,1,4,t
12,4,stimuli/T11_asa.wav,#158757,3,0.8500525,1,5,t
12,7,stimuli/T02_ava.wav,#650F00,3,0.8826361,1,6,t
12,14,stimuli/T11_asa.wav,#D2E196,3,0.8676933,1,7,t
12,12,stimuli/T11_asha.wav,#5FC281,3,0.8002455,1,8,t
2,8,stimuli/T02_ana.wav,#002F62,4,1.4857067,0,0,t
2,7,stimuli/T01_ava.wav,#6E4800,3,1.0184367,1,1,t
2,17,stimuli/T01_aza.wav,#6A2400,3,0.8014103,1,2,t
2,0,stimuli/T02_afa.wav,#0078DA,3,1.4994737,0,3,t
2,2,stimuli/T02_ana.wav,#0078DA,3,1.0002911,1,4,t
2,16,stimuli/T02_athetaa.wav,#006EF9,4,0.9829712,0,5,t
2,0,stimuli/T02_afa.wav,#0078DA,3,1.2688873,0,6,t
2,12,stimuli/T02_afa.wav,#006EF9,3,0.9167297,1,7,t
2,4,stimuli/T02_athetaa.wav,#0078DA,3,0.8781477,1,8,t
23,4,stimuli/T05_apa.wav,#6282CD,3,0.6002008,1,0,t
23,16,stimuli/T05_apa.wav,#AB82D7,3,0.8335856,1,1,t
23,1,stimuli/T11_apa.wav,#428225,3,1.0492385,0,2,t
23,0,stimuli/T05_afa.wav,#6282CD,3,0.8861105,0,3,t
23,7,stimuli/T11_apa.wav,#5C6B3B,3,0.8359725,1,4,t
23,13,stimuli/T11_apa.wav,#4B5600,3,0.7160722,1,5,t
23,15,stimuli/T11_ata.wav,#5C6B3B,3,0.7344389,1,6,t
23,11,stimuli/T11_ava.wav,#4B5600,3,0.8651875,1,7,t
23,3,stimuli/T11_ava.wav,#428225,3,0.9011867,1,8,t
16,3,stimuli/T08_asa.wav,#6D8D45,3,1.134653,1,0,t
16,1,stimuli/T08_aga.wav,#6D8D45,3,0.6993341,0,1,t
16,14,stimuli/T02_ava.wav,#BFA5A8,3,0.7673357,1,2,t
16,12,stimuli/T02_aba.wav,#8E6386,3,0.7348292,1,3,t
16,1,stimuli/T08_aga.wav,#6D8D45,4,1.4837863,1,4,t
16,7,stimuli/T08_aga.wav,#4A4800,3,0.7175584,1,5,t
16,17,stimuli/T08_azha.wav,#99B235,3,0.768417,1,6,t
16,16,stimuli/T02_ava.wav,#8E6386,3,1.1007188,1,7,t
16,5,stimuli/T08_azha.wav,#6D8D45,4,1.1695124,0,8,t
19,9,stimuli/T01_asa.wav,#204400,3,1.1521705,1,0,t
19,13,stimuli/T01_aga.wav,#72A54B,4,0.7840268,0,1,t
19,0,stimuli/T08_ava.wav,#865B21,3,0.966307,0,2,t
19,3,stimuli/T01_asa.wav,#9D9236,3,0.6523088,1,3,t
19,9,stimuli/T01_asa.wav,#204400,3,0.652331,1,4,t
19,8,stimuli/T08_ana.wav,#FF8F87,3,0.6827616,1,5,t
19,1,stimuli/T01_aga.wav,#9D9236,3,1.0168092,0,6,t
19,6,stimuli/T08_ava.wav,#FF8F87,3,0.7000483,1,7,t
19,5,stimuli/T01_ava.wav,#9D9236,3,1.2520771,1,8,t
9,17,stimuli/T09_aza.wav,#003C58,3,0.6010254,1,0,t
9,17,stimuli/T09_aza.wav,#003C58,3,0.6158187,1,1,t
9,2,stimuli/T01_athetaa.wav,#22A467,3,1.1342753,1,2,t
9,4,stimuli/T01_ava.wav,#22A467,3,0.8036474,1,3,t
9,1,stimuli/T09_ana.wav,#006DA2,3,0.8649062,0,4,t
9,13,stimuli/T09_ana.wav,#003C58,3,0.7008473,1,5,t
9,7,stimuli/T09_ana.wav,#001B2C,3,0.7317378,1,6,t
9,15,stimuli/T09_aza.wav,#001B2C,3,0.7151474,1,7,t
9,1,stimuli/T09_ana.wav,#006DA2,3,0.7357131,0,8,t
24,10,stimuli/T08_aetha.wav,#995300,3,1.583499,1,0,t
24,0,stimuli/T08_ata.wav,#976B20,3,0.7835778,0,1,t
24,6,stimuli/T08_ata.wav,#7E6A4D,3,0.7352417,1,2,t
24,2,stimuli/T08_aetha.wav,#976B20,3,1.2164389,1,3,t
24,14,stimuli/T08_apa.wav,#7E6A4D,3,0.9688391,1,4,t
24,1,stimuli/T09_ama.wav,#C76454,4,0.9856681,1,5,t
24,11,stimuli/T09_aza.wav,#8E4D28,3,1.6651531,1,6,t
24,13,stimuli/T09_ama.wav,#8E4D28,3,1.2536648,1,7,t
24,4,stimuli/T08_apa.wav,#976B20,3,0.7660956,1,8,t
14,15,stimuli/T09_ada.wav,#E77FE2,3,1.3851911,1,0,t
14,1,stimuli/T09_ava.wav,#7C5DB2,3,1.1998489,0,1,t
14,3,stimuli/T09_ama.wav,#7C5DB2,3,1.6672971,1,2,t
14,1,stimuli/T09_ava.wav,#7C5DB2,3,1.7999017,0,3,t
14,6,stimuli/T05_ata.wav,#94EBFF,3,0.9850205,1,4,t
14,15,stimuli/T09_ada.wav,#E77FE2,3,0.7668255,1,5,t
14,5,stimuli/T09_ada.wav,#7C5DB2,3,0.8827881,1,6,t
14,12,stimuli/T05_ata.wav,#00CCFF,3,0.8018607,1,7,t
14,9,stimuli/T09_ama.wav,#E77FE2,3,1.0663103,1,8,t
13,14,stimuli/T02_aza.wav,#A98A00,3,0.8506686,1,0,t
13,4,stimuli/T02_aza.wav,#596600,3,0.7838981,1,1,t
13,2,stimuli/T02_aga.wav,#596600,3,0.7162997,1,2,t
13,14,stimuli/T02_aza.wav,#A98A00,3,0.966659,1,3,t
13,6,stimuli/T02_ana.wav,#A98A00,3,0.7003886,1,4,t
13,1,stimuli/T06_aza.wav,#007BC4,4,1.3336035,1,5,t
13,1,stimuli/T06_aza.wav,#007BC4,4,1.3507539,1,6,t
13,8,stimuli/T02_aga.wav,#A98A00,3,1.0984059,1,7,t
13,12,stimuli/T02_ana.wav,#386A1F,3,1.1324123,1,8,t
10,10,stimuli/T09_ada.wav,#005C1C,3,1.0341969,1,0,t
10,13,stimuli/T06_ada.wav,#398DF3,3,0.6678717,1,1,t
10,1,stimuli/T06_ada.wav,#3B7EC0,4,0.9510408,1,2,t
10,0,stimuli/T09_athetaa.wav,#5C9D43,3,1.2336527,0,3,t
10,2,stimuli/T09_ada.wav,#5C9D43,4,1.7990478,0,4,t
10,8,stimuli/T09_ada.wav,#476131,3,0.7006046,1,5,t
10,7,stimuli/T06_ada.wav,#008BB4,3,1.1013122,1,6,t
10,17,stimuli/T06_aetha.wav,#398DF3,3,0.8318864,1,7,t
10,4,stimuli/T09_afa.wav,#5C9D43,3,1.333903,1,8,t
22,15,stimuli/T07_athetaa.wav,#002900,3,0.6683843,1,0,t
22,11,stimuli/T07_ana.wav,#444400,3,0.5669724,1,1,t
22,7,stimuli/T07_asa.wav,#002900,3,0.4180994,1,2,t
22,4,stimuli/T06_asa.wav,#BE5E73,3,0.8678185,1,3,t
22,3,stimuli/T07_ana.wav,#697517,4,1.0153806,0,4,t
22,13,stimuli/T07_asa.wav,#444400,3,0.6330497,1,5,t
22,0,stimuli/T06_ama.wav,#BE5E73,3,1.0674169,0,6,t
22,0,stimuli/T06_ama.wav,#BE5E73,3,0.8831471,0,7,t
22,10,stimuli/T06_athetaa.wav,#855850,3,1.1503694,1,8,t
4,1,stimuli/T05_aza.wav,#0094E4,4,1.1524827,1,0,t
4,13,stimuli/T05_aza.wav,#0072C1,3,0.7993485,1,1,t
4,1,stimuli/T05_aza.wav,#0094E4,3,1.150846,0,2,t
4,8,stimuli/T06_asa.wav,#71593B,3,1.4055889,1,3,t
4,5,stimuli/T05_aetha.wav,#0094E4,3,0.8999351,1,4,t
4,9,stimuli/T05_asha.wav,#104D7A,3,0.8661708,1,5,t
4,9,stimuli/T05_asha.wav,#104D7A,3,0.8167137,1,6,t
4,7,stimuli/T05_aza.wav,#104D7A,3,1.1163394,1,7,t
8,7,stimuli/T07_ava.wav,#F0BDFF,3,0.5318304,1,0,t
8,13,stimuli/T07_ava.wav,#3E618B,3,0.7829154,1,1,t
8,15,stimuli/T07_aza.wav,#F0BDFF,3,0.6154441,1,2,t
8,4,stimuli/T09_athetaa.wav,#AF4E6D,3,0.8526575,1,3,t
8,1,stimuli/T07_ava.wav,#8685CC,3,1.0180125,0,4,t
8,3,stimuli/T07_asa.wav,#8685CC,3,0.9034395,1,5,t
8,11,stimuli/T07_asa.wav,#3E618B,3,0.4830244,1,6,t
8,1,stimuli/T07_ava.wav,#8685CC,3,1.4323367,0,7,t
8,16,stimuli/T09_athetaa.wav,#BD3079,3,0.8376218,1,8,t
1,1,stimuli/T07_azha.wav,#B15D44,3,0.6801875,0,0,t
1,15,stimuli/T07_ada.wav,#852F00,3,0.6503998,1,1,t
1,7,stimuli/T07_azha.wav,#852F00,3,0.7835399,1,2,t
1,4,stimuli/T01_aetha.wav,#00707E,3,0.8683534,1,3,t
1,12,stimuli/T01_aza.wav,#00516A,3,0.7177797,1,4,t
1,16,stimuli/T01_aetha.wav,#00516A,3,0.7499172,1,5,t
1,3,stimuli/T07_asha.wav,#B15D44,3,0.8993762,1,6,t
1,1,stimuli/T07_azha.wav,#B15D44,3,1.1655294,0,7,t
1,14,stimuli/T01_aetha.wav,#004574,3,0.7835058,1,8,t
6,8,stimuli/T11_athetaa.wav,#003F3D,3,1.0694888,1,0,t
6,1,stimuli/T01_athetaa.wav,#9B7FE3,4,1.332341,1,1,t
6,1,stimuli/T01_athetaa.wav,#9B7FE3,4,1.00141,1,2,t
6,7,stimuli/T01_athetaa.wav,#B0C7FF,3,0.5186209,1,3,t
6,2,stimuli/T11_athetaa.wav,#007986,3,1.1829521,1,4,t
6,14,stimuli/T11_ava.wav,#003F3D,3,0.8325935,1,5,t
6,5,stimuli/T01_asa.wav,#9B7FE3,3,1.8483467,1,6,t
6,12,stimuli/T11_aga.wav,#00AEB1,3,0.8347921,1,7,t
6,17,stimuli/T01_asa.wav,#DAADFF,3,1.4591953,1,8,t
21,7,stimuli/T11_apa.wav,#400E00,3,0.5830844,1,0,t
21,17,stimuli/T11_athetaa.wav,#8F413E,3,0.5481432,1,1,t
21,3,stimuli/T11_ada.wav,#A15323,3,0.732137,1,2,t
21,11,stimuli/T11_ada.wav,#8F413E,3,0.716791,1,3,t
21,1,stimuli/T11_apa.wav,#A15323,3,1.183767,0,4,t
21,0,stimuli/T09_aga.wav,#0098B4,3,1.7485843,0,5,t
21,12,stimuli/T09_aga.wav,#006680,3,1.0327689,1,6,t
21,5,stimuli/T11_athetaa.wav,#A15323,3,1.4169212,1,7,t
21,17,stimuli/T11_athetaa.wav,#8F413E,3,1.6326993,1,8,t
18,11,stimuli/T02_aba.wav,#00AD66,3,0.6175126,1,0,t
18,12,stimuli/T06_ama.wav,#975146,3,0.5680745,1,1,t
18,0,stimuli/T06_ama.wav,#B33933,3,0.6171843,0,2,t
18,6,stimuli/T06_ama.wav,#FF0053,3,0.4173075,1,3,t
18,1,stimuli/T02_ana.wav,#1D7331,4,1.4515295,1,4,t
18,5,stimuli/T02_ama.wav,#1D7331,4,1.4832933,0,5,t
18,16,stimuli/T06_asa.wav,#975146,3,0.9330088,1,6,t
18,16,stimuli/T06_asa.wav,#975146,3,0.8324431,1,7,t
18,3,stimuli/T02_aba.wav,#1D7331,3,1.2845124,1,8,t
20,12,stimuli/T06_aka.wav,#589782,3,1.710448,1,0,t
20,14,stimuli/T06_apa.wav,#59C955,3,0.9658622,1,1,t
20,3,stimuli/T08_asha.wav,#0097D4,3,1.6497897,1,2,t
20,1,stimuli/T08_aza.wav,#0097D4,4,1.1336599,1,3,t
20,4,stimuli/T06_apa.wav,#05956B,3,0.9830484,1,4,t
20,1,stimuli/T08_aza.wav,#0097D4,3,1.1001067,0,5,t
20,11,stimuli/T08_asha.wav,#007CD3,3,0.8182922,1,6,t
20,6,stimuli/T06_aka.wav,#59C955,3,0.8339391,1,7,t
20,10,stimuli/T06_ana.wav,#589782,3,0.8025503,1,8,t
17,10,stimuli/T06_aza.wav,#00449B,3,0.5682926,1,0,t
17,9,stimuli/T04_ada.wav,#008592,3,0.9012057,1,1,t
17,13,stimuli/T04_athetaa.wav,#00375C,3,0.7811011,1,2,t
17,4,stimuli/T06_aba.wav,#0072C9,3,1.0324084,1,3,t
17,7,stimuli/T04_athetaa.wav,#008592,3,0.9167893,1,4,t
17,15,stimuli/T04_apa.wav,#008592,3,0.6666541,1,5,t
17,0,stimuli/T06_ama.wav,#0072C9,4,0.8013381,1,6,t
17,1,stimuli/T04_athetaa.wav,#006D9E,3,0.9494883,0,7,t
17,3,stimuli/T04_ada.wav,#006D9E,4,0.6832787,0,8,t
3,2,stimuli/T08_azha.wav,#A5376F,3,0.6987743,1,0,t
3,0,stimuli/T08_ana.wav,#A5376F,4,0.7991186,1,1,t
3,4,stimuli/T08_ada.wav,#A5376F,4,0.8673246,0,2,t
3,6,stimuli/T08_ana.wav,#8D6CA6,3,0.7161792,1,3,t
3,15,stimuli/T01_afa.wav,#90000A,3,0.8031653,1,4,t
3,15,stimuli/T01_afa.wav,#90000A,3,1.5006519,1,5,t
3,1,stimuli/T01_asa.wav,#DD6853,3,0.9840711,0,6,t
3,16,stimuli/T08_ada.wav,#7B0027,3,1.0491658,1,7,t
3,12,stimuli/T08_ana.wav,#7B0027,3,0.8513516,1,8,t
7,15,stimuli/T03_afa.wav,#CB002B,3,0.7499127,1,0,t
7,13,stimuli/T03_aka.wav,#ED597E,3,0.6501201,1,1,t
7,3,stimuli/T03_ana.wav,#B74B3D,3,0.9000623,1,2,t
7,5,stimuli/T03_afa.wav,#B74B3D,3,0.8007944,1,3,t
7,14,stimuli/T12_ada.wav,#9D3D12,3,1.3989974,1,4,t
7,14,stimuli/T12_ada.wav,#9D3D12,3,1.8841707,1,5,t
7,1,stimuli/T03_aka.wav,#B74B3D,3,1.1857499,0,6,t
7,7,stimuli/T03_aka.wav,#CB002B,3,1.2843955,1,7,t
15,11,stimuli/T06_asa.wav,#A56968,3,1.8651096,1,0,t
15,8,stimuli/T10_athetaa.wav,#830021,3,1.2012287,1,1,t
15,5,stimuli/T06_azha.wav,#BF6794,3,0.7002924,1,2,t
15,11,stimuli/T06_asa.wav,#A56968,3,0.6837406,1,3,t
15,1,stimuli/T06_aza.wav,#BF6794,4,1.9401647,1,4,t
15,6,stimuli/T10_aga.wav,#830021,4,0.7996267,0,5,t
15,12,stimuli/T10_aga.wav,#C37841,3,0.6662604,1,6,t
15,3,stimuli/T06_asa.wav,#BF6794,4,1.4024711,0,7,t
15,0,stimuli/T10_aga.wav,#C3514A,3,0.7011368,0,8,t
11,7,stimuli/T02_apa.wav,#452842,3,0.7168863,1,0,t
11,3,stimuli/T02_aba.wav,#5068AD,3,0.5675012,1,1,t
11,1,stimuli/T02_apa.wav,#5068AD,3,0.5639085,0,2,t
11,8,stimuli/T06_aetha.wav,#6B2DC7,3,0.8168273,1,3,t
11,0,stimuli/T06_asa.wav,#944990,3,0.6825582,0,4,t
11,8,stimuli/T06_aetha.wav,#6B2DC7,3,0.7676142,1,5,t
11,4,stimuli/T06_athetaa.wav,#944990,4,0.949468,0,6,t
11,12,stimuli/T06_asa.wav,#E06BC5,3,1.3826636,1,7,t
11,9,stimuli/T02_aba.wav,#452842,3,0.6679639,1,8,t
5,3,stimuli/T11_ava.wav,#00846E,3,0.93458,1,0,t
5,15,stimuli/T11_ata.wav,#30BD87,3,0.8003635,1,1,t
5,1,stimuli/T11_apa.wav,#00846E,3,0.8669606,0,2,t
5,1,stimuli/T11_apa.wav,#00846E,3,1.1152167,0,3,t
5,14,stimuli/T05_ada.wav,#B60013,3,0.9842951,1,4,t
5,6,stimuli/T05_ana.wav,#B60013,4,0.81826,0,5,t
5,9,stimuli/T11_ava.wav,#30BD87,3,0.8160956,1,6,t
5,5,stimuli/T11_ata.wav,#00846E,3,1.383906,1,7,t
5,12,stimuli/T05_ana.wav,#A04181,3,1.2991648,1,8,t
25,15,stimuli/T12_apa.wav,#FF82A8,4,1.7855763,0,0,t
25,12,stimuli/T05_aba.wav,#00DEF8,3,1.5356735,1,1,t
25,4,stimuli/T05_aza.wav,#00A0BB,3,1.3156166,1,2,t
25,9,stimuli/T12_aga.wav,#FF82A8,3,0.816691,1,3,t
25,0,stimuli/T05_aba.wav,#00A0BB,3,1.0832183,0,4,t
25,3,stimuli/T12_aga.wav,#BC5A4E,3,0.9194988,1,5,t
25,7,stimuli/T12_ata.wav,#FF82A8,3,0.8177001,1,6,t
25,16,stimuli/T05_aza.wav,#00DEF8,3,1.0178683,1,7,t
25,0,stimuli/T05_aba.wav,#00A0BB,3,1.4029643,0,8,t
12,4,stimuli/T03_aza.wav,#0075AD,3,0.9012229,1,0,t
12,1,stimuli/T09_ama.wav,#B46A46,4,1.1837661,1,1,t
12,10,stimuli/T03_asa.wav,#0083D1,4,1.9651194,0,2,t
12,17,stimuli/T09_asa.wav,#672F0A,3,0.8026082,1,3,t
12,3,stimuli/T09_aza.wav,#B46A46,3,0.9805682,1,4,t
12,10,stimuli/T03_asa.wav,#0083D1,4,1.865646,0,5,t
12,7,stimuli/T09_ama.wav,#807856,3,0.7371985,1,6,t
12,12,stimuli/T03_aetha.wav,#0083D1,3,1.0630135,1,7,t
12,0,stimuli/T03_aetha.wav,#0075AD,3,0.6672239,0,8,t
2,8,stimuli/T10_aba.wav,#4C002E,3,0.4843133,1,0,t
2,9,stimuli/T05_apa.wav,#001500,3,0.4665742,1,1,t
2,9,stimuli/T05_apa.wav,#001500,3,0.3668692,1,2,t
2,4,stimuli/T10_athetaa.wav,#C1385F,4,1.4143532,0,3,t
2,1,stimuli/T05_ama.wav,#007180,3,1.0326582,0,4,t
2,0,stimuli/T10_apa.wav,#C1385F,4,0.8496931,1,5,t
2,7,stimuli/T05_ama.wav,#001500,3,0.6820803,1,6,t
2,12,stimuli/T10_apa.wav,#7F0024,3,0.7004974,1,7,t
2,2,stimuli/T10_aba.wav,#C1385F,3,0.883326,1,8,t
23,0,stimuli/T04_aka.wav,#009DE8,3,0.949706,0,1,t
23,7,stimuli/T03_ata.wav,#004F35,3,0.699881,1,2,t
23,3,stimuli/T03_aetha.wav,#4D6816,3,0.6013178,1,3,t
23,10,stimuli/T04_aga.wav,#008DF4,3,0.7175471,1,4,t
23,15,stimuli/T03_aka.wav,#004F35,3,0.8505464,1,5,t
23,8,stimuli/T04_aga.wav,#4F6682,3,0.786518,1,6,t
23,13,stimuli/T03_ata.wav,#786B00,3,1.3837673,1,7,t
23,1,stimuli/T03_ata.wav,#4D6816,3,1.8680913,0,8,t
16,2,stimuli/T03_azha.wav,#B14F66,3,1.4496227,1,0,t
16,8,stimuli/T03_azha.wav,#740016,3,1.3327882,1,1,t
16,5,stimuli/T12_ava.wav,#5158B6,3,1.6319459,1,2,t
16,13,stimuli/T12_aba.wav,#595CEE,3,1.7504206,1,3,t
16,7,stimuli/T12_aba.wav,#6E5086,3,0.7671755,1,4,t
16,1,stimuli/T12_aba.wav,#5158B6,3,0.8828763,0,5,t
16,14,stimuli/T03_afa.wav,#740016,3,0.9481559,1,6,t
16,1,stimuli/T12_aba.wav,#5158B6,4,1.419149,1,7,t
16,14,stimuli/T03_afa.wav,#740016,3,1.0987536,1,8,t
19,10,stimuli/T03_aza.wav,#006327,3,1.0328816,1,0,t
19,13,stimuli/T08_azha.wav,#AC2C00,3,0.9500069,1,1,t
19,3,stimuli/T08_aba.wav,#AE5229,3,1.0504218,1,2,t
19,11,stimuli/T08_aba.wav,#AC2C00,3,0.6006764,1,3,t
19,1,stimuli/T08_azha.wav,#AE5229,4,1.6506373,1,4,t
19,1,stimuli/T08_azha.wav,#AE5229,4,1.0205451,1,5,t
19,6,stimuli/T03_ama.wav,#CBA846,3,0.8010977,1,6,t
19,17,stimuli/T08_aza.wav,#AC2C00,3,1.615678,1,7,t
19,5,stimuli/T08_aza.wav,#AE5229,3,0.9019041,1,8,t
9,13,stimuli/T09_afa.wav,#009D6E,4,1.1003835,0,0,t
9,1,stimuli/T09_afa.wav,#00A375,4,1.1664366,1,1,t
9,11,stimuli/T09_ana.wav,#009D6E,3,1.3337947,1,2,t
9,6,stimuli/T02_apa.wav,#CC6200,3,1.8011107,1,3,t
9,14,stimuli/T02_ata.wav,#CC6200,3,1.1162235,1,4,t
9,2,stimuli/T02_ava.wav,#C95D47,3,0.8677419,1,5,t
9,10,stimuli/T02_ava.wav,#812C2C,3,0.6643796,1,6,t
9,5,stimuli/T09_asa.wav,#00A375,4,1.0498449,0,7,t
9,1,stimuli/T09_afa.wav,#00A375,3,1.1000277,0,8,t
24,7,stimuli/T09_aetha.wav,#E7B941,3,0.6002911,1,0,t
24,17,stimuli/T09_aza.wav,#80531E,3,0.7652186,1,1,t
24,5,stimuli/T09_aza.wav,#C87641,3,0.8845333,1,2,t
24,3,stimuli/T09_athetaa.wav,#C87641,4,0.8678593,0,3,t
24,13,stimuli/T09_aetha.wav,#80531E,3,0.98818,1,4,t
24,1,stimuli/T09_aetha.wav,#C87641,3,0.9856868,0,5,t
24,0,stimuli/T05_aga.wav,#6656B0,3,1.1483731,0,6,t
24,14,stimuli/T05_ava.wav,#7FABFF,3,1.5514663,1,7,t
24,9,stimuli/T09_athetaa.wav,#E7B941,3,0.8328858,1,8,t
14,15,stimuli/T12_asa.wav,#009EFF,3,0.8672707,1,0,t
14,3,stimuli/T12_aga.wav,#009AD9,3,1.4817667,1,1,t
14,5,stimuli/T12_asa.wav,#009AD9,3,1.3008124,1,2,t
14,12,stimuli/T11_aba.wav,#694E7D,3,1.0982469,1,3,t
14,17,stimuli/T12_asa.wav,#008BD6,4,1.1658834,0,4,t
14,7,stimuli/T12_afa.wav,#009EFF,4,1.6335804,0,5,t
14,10,stimuli/T11_azha.wav,#694E7D,3,1.6348207,1,6,t
14,1,stimuli/T12_afa.wav,#009AD9,4,1.5522632,1,7,t
14,1,stimuli/T12_afa.wav,#009AD9,4,0.8494876,1,8,t
13,1,stimuli/T09_asha.wav,#56984C,3,1.4164813,0,1,t
13,3,stimuli/T09_apa.wav,#56984C,3,0.8805218,1,2,t
13,11,stimuli/T09_apa.wav,#99B45A,3,0.5830333,1,3,t
13,17,stimuli/T09_athetaa.wav,#99B45A,3,1.2694425,1,4,t
13,6,stimuli/T02_aza.wav,#00C3D8,4,0.9848726,0,5,t
13,13,stimuli/T09_asha.wav,#99B45A,4,1.1663998,0,6,t
13,0,stimuli/T02_aza.wav,#00A0A7,3,0.8499159,0,7,t
13,5,stimuli/T09_athetaa.wav,#56984C,4,1.3165208,0,8,t
10,4,stimuli/T04_apa.wav,#CB57A7,4,0.8659307,0,0,t
10,0,stimuli/T04_athetaa.wav,#CB57A7,4,0.9323892,1,1,t
10,15,stimuli/T01_ada.wav,#D9918B,4,1.0500029,0,2,t
10,17,stimuli/T01_ada.wav,#6D2122,4,1.1338276,0,3,t
10,0,stimuli/T04_athetaa.wav,#CB57A7,3,1.1834638,0,4,t
10,6,stimuli/T04_athetaa.wav,#A30098,4,1.9008154,0,5,t
10,8,stimuli/T04_ana.wav,#A30098,3,0.8176811,1,6,t
10,2,stimuli/T04_ana.wav,#CB57A7,3,0.7668712,1,7,t
10,12,stimuli/T04_athetaa.wav,#FF90F4,3,0.7496293,1,8,t
22,5,stimuli/T11_aetha.wav,#00937F,3,0.9531943,1,0,t
22,6,stimuli/T04_azha.wav,#F389CA,3,1.231555,1,1,t
22,15,stimuli/T11_aetha.wav,#81706F,3,0.8334741,1,2,t
22,1,stimuli/T11_aza.wav,#00937F,4,0.951768,1,3,t
22,3,stimuli/T11_asa.wav,#00937F,4,0.9839985,0,4,t
22,13,stimuli/T11_aza.wav,#00593F,3,0.7167344,1,5,t
22,0,stimuli/T04_azha.wav,#A468B9,3,1.1665634,0,6,t
22,8,stimuli/T04_aba.wav,#F389CA,3,0.6845025,1,7,t
22,8,stimuli/T04_aba.wav,#F389CA,3,0.8997461,1,8,t
4,8,stimuli/T04_asa.wav,#E382F9,3,0.4678739,1,0,t
4,4,stimuli/T04_aza.wav,#6488D7,4,0.9156932,0,1,t
4,14,stimuli/T04_aza.wav,#E382F9,3,0.9845166,1,2,t
4,13,stimuli/T05_asha.wav,#891300,4,0.8340636,0,3,t
4,0,stimuli/T04_ava.wav,#6488D7,4,1.1673412,1,4,t
4,16,stimuli/T04_aza.wav,#7EB9F6,3,0.7312409,1,5,t
4,3,stimuli/T05_ama.wav,#C23D44,3,1.0993434,1,6,t
4,1,stimuli/T05_asha.wav,#C23D44,3,1.0354278,0,7,t
4,7,stimuli/T05_asha.wav,#FFB5B3,3,0.7848854,1,8,t
8,2,stimuli/T06_ama.wav,#D0725F,3,0.6997415,1,0,t
8,5,stimuli/T11_asa.wav,#AE336E,3,0.8648442,1,1,t
8,6,stimuli/T06_athetaa.wav,#8C6360,3,1.2515024,1,2,t
8,12,stimuli/T06_athetaa.wav,#F5643E,3,0.783357,1,3,t
8,16,stimuli/T06_apa.wav,#F5643E,3,1.0514234,1,4,t
8,11,stimuli/T11_aza.wav,#C03196,3,0.8669219,1,5,t
8,0,stimuli/T06_athetaa.wav,#D0725F,3,0.8851281,0,6,t
8,15,stimuli/T11_asa.wav,#4F0000,3,0.9009455,1,7,t
8,0,stimuli/T06_athetaa.wav,#D0725F,3,1.422828,0,8,t
1,3,stimuli/T03_ana.wav,#D5528D,3,0.8829764,1,0,t
1,16,stimuli/T02_aetha.wav,#00304A,3,0.7169949,1,1,t
1,0,stimuli/T02_aza.wav,#006D8A,3,0.6683264,0,2,t
1,5,stimuli/T03_aga.wav,#D5528D,3,0.9152383,1,3,t
1,7,stimuli/T03_ada.wav,#9B7365,3,0.5992906,1,4,t
1,0,stimuli/T02_aza.wav,#006D8A,4,1.1834812,1,5,t
1,8,stimuli/T02_apa.wav,#002B15,3,0.7335428,1,6,t
1,17,stimuli/T03_aga.wav,#BC7793,3,0.7507761,1,7,t
1,12,stimuli/T02_aza.wav,#00304A,3,1.1841996,1,8,t
6,2,stimuli/T04_ana.wav,#3966C2,4,1.3005291,0,0,t
6,7,stimuli/T11_ama.wav,#E654C8,4,1.6672067,0,1,t
6,0,stimuli/T04_asa.wav,#3966C2,4,1.399615,1,2,t
6,12,stimuli/T04_asa.wav,#8F64AD,3,0.7686516,1,3,t
6,10,stimuli/T04_ana.wav,#8F64AD,3,0.7670471,1,4,t
6,11,stimuli/T11_athetaa.wav,#49285A,3,0.6175031,1,5,t
6,4,stimuli/T04_athetaa.wav,#3966C2,3,0.9658323,1,6,t
6,17,stimuli/T11_ana.wav,#49285A,3,0.7489878,1,7,t
6,1,stimuli/T11_ama.wav,#A14B7F,3,0.8685178,0,8,t
21,0,stimuli/T04_ata.wav,#A46422,3,0.9661804,0,0,t
21,8,stimuli/T04_aga.wav,#6F1127,3,0.6830601,1,1,t
21,12,stimuli/T04_ata.wav,#D6643E,3,0.8506108,1,2,t
21,9,stimuli/T08_aba.wav,#836796,3,0.8163142,1,3,t
21,16,stimuli/T04_aka.wav,#D6643E,3,0.8350315,1,4,t
21,6,stimuli/T04_ata.wav,#6F1127,3,1.1663423,1,5,t
21,1,stimuli/T08_ana.wav,#A164C1,4,0.9672604,1,6,t
21,2,stimuli/T04_aga.wav,#A46422,3,0.6852735,1,7,t
21,4,stimuli/T04_aka.wav,#A46422,3,0.6503129,1,8,t
18,0,stimuli/T09_aka.wav,#7F50A4,4,0.7669705,1,0,t
18,2,stimuli/T09_aga.wav,#7F50A4,3,0.9159292,1,1,t
18,7,stimuli/T03_aetha.wav,#702B36,4,1.2168129,0,2,t
18,17,stimuli/T03_aza.wav,#CB312F,3,0.5317479,1,3,t
18,1,stimuli/T03_aetha.wav,#B35044,3,0.8834757,0,4,t
18,13,stimuli/T03_aetha.wav,#CB312F,3,1.034616,1,5,t
18,4,stimuli/T09_apa.wav,#7F50A4,3,0.9500692,1,6,t
18,10,stimuli/T09_aga.wav,#4B7AD6,3,0.582461,1,7,t
18,8,stimuli/T09_aga.wav,#FDB3FF,3,0.5822338,1,8,t
20,15,stimuli/T03_ata.wav,#3C5399,3,0.7355023,1,0,t
20,13,stimuli/T03_aka.wav,#3CB4FF,4,0.7349613,0,1,t
20,3,stimuli/T03_ana.wav,#6487EF,3,0.7835863,1,2,t
20,8,stimuli/T07_ana.wav,#957F1D,4,1.1169268,0,3,t
20,0,stimuli/T07_ada.wav,#C56531,4,0.7668608,1,4,t
20,6,stimuli/T07_ada.wav,#957F1D,3,0.7674653,1,5,t
20,0,stimuli/T07_ada.wav,#C56531,4,1.0501478,1,6,t
20,4,stimuli/T07_aga.wav,#C56531,4,1.7146117,0,7,t
20,10,stimuli/T07_ana.wav,#FF702F,3,0.502233,1,8,t
17,0,stimuli/T01_ana.wav,#986C28,3,0.9314918,0,0,t
17,7,stimuli/T08_asa.wav,#620253,4,0.7348364,0,1,t
17,10,stimuli/T01_azha.wav,#65651D,3,1.3660723,1,2,t
17,5,stimuli/T08_asha.wav,#C55571,3,0.8826016,1,3,t
17,10,stimuli/T01_azha.wav,#65651D,3,0.8168789,1,4,t
17,13,stimuli/T08_asa.wav,#AC6BA1,3,0.8866995,1,5,t
17,0,stimuli/T01_ana.wav,#986C28,4,1.0317302,1,6,t
17,2,stimuli/T01_azha.wav,#986C28,3,0.8178105,1,7,t
17,17,stimuli/T08_asha.wav,#AC6BA1,3,0.8011397,1,8,t
3,7,stimuli/T05_aka.wav,#E3AAAA,3,1.7820604,1,0,t
3,16,stimuli/T06_aza.wav,#A4B8F9,3,1.5327945,1,1,t
3,9,stimuli/T05_ana.wav,#E3AAAA,3,0.8501058,1,2,t
3,8,stimuli/T06_asa.wav,#002D69,3,0.8166168,1,3,t
3,1,stimuli/T05_aka.wav,#B2561E,3,1.1213224,0,4,t
3,3,stimuli/T05_ana.wav,#B2561E,3,1.468258,1,5,t
3,0,stimuli/T06_ava.wav,#9883CA,3,1.4012004,0,6,t
3,13,stimuli/T05_aka.wav,#A75E42,4,1.2853533,0,7,t
3,4,stimuli/T06_aza.wav,#9883CA,3,0.9035918,1,8,t
7,0,stimuli/T05_ada.wav,#0085B9,3,1.4489404,0,0,t
7,13,stimuli/T12_aetha.wav,#B963A0,3,0.8172609,1,1,t
7,3,stimuli/T12_asa.wav,#AA68CA,3,0.8672176,1,2,t
7,11,stimuli/T12_asa.wav,#B963A0,3,1.0008306,1,3,t
7,4,stimuli/T05_aga.wav,#0085B9,3,1.3712568,1,4,t
7,7,stimuli/T12_aetha.wav,#811E7A,3,1.1170897,1,5,t
7,15,stimuli/T12_ava.wav,#811E7A,3,1.0703026,1,6,t
7,0,stimuli/T05_ada.wav,#0085B9,4,0.6504678,1,7,t
7,15,stimuli/T12_ava.wav,#811E7A,3,1.2324872,1,8,t
15,14,stimuli/T02_ata.wav,#00245E,3,1.0181391,1,0,t
15,16,stimuli/T02_ata.wav,#007DC6,3,0.7191893,1,1,t
15,3,stimuli/T05_aga.wav,#C35D99,3,0.7512669,1,2,t
15,0,stimuli/T02_asha.wav,#0078A0,4,1.1997412,1,3,t
15,7,stimuli/T05_afa.wav,#939ADE,3,0.8859029,1,4,t
15,8,stimuli/T02_afa.wav,#00245E,3,1.0494952,1,5,t
15,12,stimuli/T02_asha.wav,#007DC6,4,1.2151293,0,6,t
15,4,stimuli/T02_ata.wav,#0078A0,3,0.8862271,1,7,t
15,1,stimuli/T05_afa.wav,#C35D99,3,1.3008769,0,8,t
11,11,stimuli/T12_athetaa.wav,#2A2F00,3,0.966466,1,0,t
11,12,stimuli/T08_aetha.wav,#00689B,3,0.9816413,1,1,t
11,9,stimuli/T12_athetaa.wav,#250D00,3,0.9494295,1,2,t
11,10,stimuli/T08_asa.wav,#00689B,3,0.8786238,1,3,t
11,0,stimuli/T08_aetha.wav,#009DE1,4,1.1157694,1,4,t
11,6,stimuli/T08_aetha.wav,#00B0D0,3,0.8164476,1,5,t
11,3,stimuli/T12_athetaa.wav,#6F6900,3,0.9161746,1,6,t
11,1,stimuli/T12_ama.wav,#6F6900,3,0.7507563,0,7,t
11,4,stimuli/T08_azha.wav,#009DE1,3,1.0332611,1,8,t
5,7,stimuli/T07_aka.wav,#840012,3,0.7158134,1,0,t
5,3,stimuli/T07_aga.wav,#A94B6E,3,0.4838581,1,1,t
5,1,stimuli/T07_aka.wav,#A94B6E,3,0.6493297,0,2,t
5,1,stimuli/T07_aka.wav,#A94B6E,3,0.950657,0,3,t
5,4,stimuli/T08_aza.wav,#0086C1,4,0.9161878,0,4,t
5,12,stimuli/T08_aetha.wav,#007B9A,3,0.5515996,1,5,t
5,17,stimuli/T07_afa.wav,#651648,3,1.3327512,1,6,t
5,14,stimuli/T08_aza.wav,#00B4E2,4,1.6668346,0,7,t
5,15,stimuli/T07_afa.wav,#840012,3,1.0522813,1,8,t
25,0,stimuli/T09_azha.wav,#0095D4,4,0.7678539,1,0,t
25,8,stimuli/T09_asha.wav,#00DFFE,3,0.7095764,1,1,t
25,13,stimuli/T04_ama.wav,#885CBE,3,1.0684349,1,2,t
25,6,stimuli/T09_azha.wav,#00DFFE,3,0.8492043,1,3,t
25,15,stimuli/T04_ana.wav,#CD898F,3,0.7689374,1,4,t
25,1,stimuli/T04_ama.wav,#A27FC3,4,1.666184,1,5,t
25,5,stimuli/T04_ana.wav,#A27FC3,3,0.8478836,1,6,t
25,2,stimuli/T09_asha.wav,#0095D4,4,1.0835413,0,7,t
25,16,stimuli/T09_aga.wav,#2B6694,3,0.882963,1,8,t
12,1,stimuli/T12_azha.wav,#007FC3,4,1.6162666,1,0,t
12,7,stimuli/T12_azha.wav,#00399F,3,0.8998805,1,1,t
12,13,stimuli/T12_azha.wav,#0083F5,3,0.9163171,1,2,t
12,5,stimuli/T12_ada.wav,#007FC3,4,1.1669649,0,3,t
12,9,stimuli/T12_asha.wav,#00399F,3,0.8802425,1,4,t
12,17,stimuli/T12_ada.wav,#0083F5,3,1.0495577,1,6,t
12,2,stimuli/T05_asa.wav,#0097A3,3,1.133207,1,7,t
12,14,stimuli/T05_aetha.wav,#00A4A7,3,0.9349148,1,8,t
2,14,stimuli/T11_athetaa.wav,#0089B6,3,1.3837187,1,0,t
2,6,stimuli/T11_afa.wav,#0089B6,4,0.8657645,0,1,t
2,17,stimuli/T01_athetaa.wav,#00623E,3,0.6821072,1,2,t
2,1,stimuli/T01_ata.wav,#358049,3,0.4013278,0,3,t
2,3,stimuli/T01_aga.wav,#358049,3,0.8495587,1,4,t
2,12,stimuli/T11_afa.wav,#004D94,3,1.1652566,1,5,t
2,5,stimuli/T01_athetaa.wav,#358049,3,1.3015006,1,6,t
2,0,stimuli/T11_afa.wav,#0075A7,4,1.5159639,1,7,t
2,17,stimuli/T01_athetaa.wav,#00623E,4,1.3906263,0,8,t
23,9,stimuli/T09_ana.wav,#822A81,3,1.6818115,1,0,t
23,13,stimuli/T09_aka.wav,#694F6D,3,0.9167282,1,1,t
23,1,stimuli/T09_aka.wav,#B65F91,3,1.4814825,0,2,t
23,5,stimuli/T09_afa.wav,#B65F91,3,1.1684629,1,3,t
23,1,stimuli/T09_aka.wav,#B65F91,3,1.1172627,0,4,t
23,6,stimuli/T07_ama.wav,#EB7F00,3,1.4011561,1,5,t
23,9,stimuli/T09_ana.wav,#822A81,3,1.2495067,1,6,t
23,3,stimuli/T09_ana.wav,#B65F91,3,0.8229347,1,7,t
23,17,stimuli/T09_afa.wav,#694F6D,3,0.9850189,1,8,t
16,15,stimuli/T05_ata.wav,#006D8B,3,0.9310044,1,0,t
16,4,stimuli/T02_ada.wav,#7551B1,3,0.7820746,1,1,t
16,13,stimuli/T05_aka.wav,#0091CE,3,0.9674654,1,2,t
16,0,stimuli/T02_ava.wav,#7551B1,4,0.9506486,1,3,t
16,14,stimuli/T02_ada.wav,#B741B3,3,0.7327564,1,4,t
16,17,stimuli/T05_ata.wav,#0091CE,3,1.117923,1,5,t
16,0,stimuli/T02_ava.wav,#7551B1,4,1.1998111,1,6,t
16,7,stimuli/T05_aka.wav,#006D8B,4,1.015842,0,7,t
16,2,stimuli/T02_ama.wav,#7551B1,3,0.8838131,1,8,t
19,2,stimuli/T11_ama.wav,#007E4C,4,1.6661833,0,0,t
19,10,stimuli/T11_ama.wav,#5BBB62,3,0.7158383,1,1,t
19,4,stimuli/T11_aza.wav,#007E4C,3,1.2326462,1,2,t
19,6,stimuli/T11_ava.wav,#006563,3,1.0020769,1,3,t
19,0,stimuli/T11_ava.wav,#007E4C,3,1.1169648,0,4,t
19,0,stimuli/T11_ava.wav,#007E4C,3,1.4338013,0,5,t
19,9,stimuli/T04_aba.wav,#00F8FF,3,0.8010714,1,6,t
19,12,stimuli/T11_ava.wav,#5BBB62,3,1.4524325,1,7,t
19,15,stimuli/T04_aza.wav,#00F8FF,3,1.2664957,1,8,t
9,4,stimuli/T05_azha.wav,#28783F,3,0.8825505,1,0,t
9,17,stimuli/T10_aza.wav,#FF8DCF,3,0.7172813,1,1,t
9,2,stimuli/T05_apa.wav,#28783F,3,0.9009865,1,2,t
9,0,stimuli/T05_aza.wav,#28783F,4,0.8342965,1,3,t
9,13,stimuli/T10_ava.wav,#FF8DCF,3,0.7862415,1,4,t
9,1,stimuli/T10_ava.wav,#BB57B0,4,1.1357538,1,5,t
9,17,stimuli/T10_aza.wav,#FF8DCF,3,0.676748,1,6,t
9,9,stimuli/T10_ana.wav,#5B197C,3,0.601182,1,7,t
9,7,stimuli/T10_ava.wav,#5B197C,3,0.7825979,1,8,t
24,1,stimuli/T09_aetha.wav,#11865E,4,1.2838004,1,0,t
24,7,stimuli/T09_aetha.wav,#678A2E,3,0.5665097,1,1,t
24,11,stimuli/T09_afa.wav,#52BE82,4,1.465734,0,2,t
24,4,stimuli/T05_aza.wav,#AF6937,3,0.9837715,1,3,t
24,0,stimuli/T05_ana.wav,#AF6937,4,1.1011811,1,4,t
24,16,stimuli/T05_aza.wav,#936900,4,1.3151258,0,5,t
24,12,stimuli/T05_ana.wav,#936900,3,0.832583,1,6,t
24,16,stimuli/T05_aza.wav,#936900,3,0.9819103,1,7,t
14,2,stimuli/T03_ana.wav,#0087B8,3,1.2338536,1,0,t
14,8,stimuli/T03_ana.wav,#0062C7,3,0.716342,1,1,t
14,5,stimuli/T11_apa.wav,#BF4B86,3,1.4854067,1,2,t
14,15,stimuli/T11_apa.wav,#E8B1EC,3,0.6827417,1,3,t
14,10,stimuli/T03_ana.wav,#00BAF4,3,1.7997203,1,4,t
14,6,stimuli/T03_ava.wav,#0062C7,4,1.1847195,0,5,t
14,13,stimuli/T11_athetaa.wav,#D994B3,3,0.9328654,1,6,t
14,1,stimuli/T11_athetaa.wav,#BF4B86,3,0.834574,0,7,t
14,1,stimuli/T11_athetaa.wav,#BF4B86,3,0.9176522,0,8,t
13,1,stimuli/T09_aga.wav,#DF60AB,4,0.8646387,1,0,t
13,13,stimuli/T09_aga.wav,#FA8FEF,3,0.8328192,1,2,t
13,3,stimuli/T09_asa.wav,#DF60AB,3,1.0339015,1,3,t
13,17,stimuli/T09_azha.wav,#FA8FEF,3,0.5995004,1,4,t
13,0,stimuli/T01_apa.wav,#8769B5,4,0.985453,1,5,t
13,16,stimuli/T01_athetaa.wav,#BDABFF,3,0.7970444,1,6,t
13,14,stimuli/T01_athetaa.wav,#94A8ED,3,0.5668226,1,7,t
13,6,stimuli/T01_apa.wav,#94A8ED,3,0.9025428,1,8,t
10,13,stimuli/T08_ada.wav,#005628,4,1.8164354,0,0,t
10,8,stimuli/T02_aba.wav,#CFCE59,3,1.0852443,1,1,t
10,7,stimuli/T08_ada.wav,#4C9C49,3,1.0670591,1,2,t
10,0,stimuli/T02_apa.wav,#588035,3,1.2337463,0,3,t
10,4,stimuli/T02_ata.wav,#588035,3,0.782947,1,4,t
10,16,stimuli/T02_ata.wav,#8B9F78,3,0.8832017,1,5,t
10,2,stimuli/T02_aba.wav,#588035,4,1.3668275,0,6,t
10,9,stimuli/T08_ana.wav,#4C9C49,4,1.6487521,0,7,t
10,0,stimuli/T02_apa.wav,#588035,3,1.1166525,0,8,t
22,13,stimuli/T09_azha.wav,#A05843,3,0.6987582,1,0,t
22,14,stimuli/T04_aetha.wav,#814E00,4,0.9995473,0,1,t
22,10,stimuli/T04_ana.wav,#F46D36,3,0.7994945,1,2,t
22,0,stimuli/T04_aba.wav,#C9763C,3,1.5351412,0,3,t
22,15,stimuli/T09_ada.wav,#6E3500,3,0.8521808,1,4,t
22,4,stimuli/T04_aetha.wav,#C9763C,4,1.1501395,0,5,t
22,7,stimuli/T09_azha.wav,#6E3500,3,0.8341399,1,6,t
22,1,stimuli/T09_azha.wav,#BB3F48,3,0.8161388,0,7,t
22,3,stimuli/T09_aba.wav,#BB3F48,3,0.7164989,1,8,t
4,0,stimuli/T07_ata.wav,#326FC7,4,1.0654303,1,0,t
4,3,stimuli/T02_aba.wav,#765CA1,3,1.6995618,1,1,t
4,13,stimuli/T02_ana.wav,#863779,3,0.8672245,1,2,t
4,7,stimuli/T02_ana.wav,#793335,3,1.5335998,1,3,t
4,8,stimuli/T07_aetha.wav,#D183FF,3,1.1504181,1,4,t
4,11,stimuli/T02_aba.wav,#863779,3,1.3181324,1,5,t
4,11,stimuli/T02_aba.wav,#863779,3,1.1999003,1,6,t
4,5,stimuli/T02_aza.wav,#765CA1,4,1.0357151,0,7,t
4,1,stimuli/T02_ana.wav,#765CA1,4,0.8671175,1,8,t
8,0,stimuli/T08_aba.wav,#C85833,4,0.8652632,1,0,t
8,13,stimuli/T11_azha.wav,#344E6D,3,0.6345065,1,1,t
8,6,stimuli/T08_aba.wav,#5E1F00,3,0.8170295,1,2,t
8,14,stimuli/T08_aetha.wav,#5E1F00,3,0.5175451,1,3,t
8,0,stimuli/T08_aba.wav,#C85833,4,1.0999414,1,4,t
8,4,stimuli/T08_aetha.wav,#C85833,3,1.0147401,1,5,t
8,2,stimuli/T08_apa.wav,#C85833,4,0.8100145,0,6,t
8,17,stimuli/T11_aza.wav,#344E6D,3,1.2843493,1,7,t
8,8,stimuli/T08_apa.wav,#5E1F00,3,1.8655476,1,8,t
1,2,stimuli/T07_aetha.wav,#006B98,3,1.0996867,1,0,t
1,1,stimuli/T06_aetha.wav,#C06FA8,4,1.5819382,1,1,t
1,8,stimuli/T07_aetha.wav,#002553,3,0.7660186,1,2,t
1,10,stimuli/T07_aetha.wav,#2B9CB3,3,0.800299,1,3,t
1,13,stimuli/T06_aetha.wav,#C6A7E1,3,1.0664739,1,4,t
1,4,stimuli/T07_asha.wav,#006B98,3,0.9514172,1,5,t
1,1,stimuli/T06_aetha.wav,#C06FA8,3,0.9664402,0,6,t
1,6,stimuli/T07_asa.wav,#002553,3,0.7843486,1,7,t
1,10,stimuli/T07_aetha.wav,#2B9CB3,3,0.7343679,1,8,t
6,9,stimuli/T05_ada.wav,#FFD2FD,3,0.6505747,1,0,t
6,7,stimuli/T05_apa.wav,#FFD2FD,3,0.5842987,1,1,t
6,0,stimuli/T02_ava.wav,#A24634,4,0.9178143,1,2,t
6,2,stimuli/T02_ama.wav,#A24634,4,0.8344628,0,3,t
6,17,stimuli/T05_athetaa.wav,#8B003D,3,0.8821344,1,4,t
6,0,stimuli/T02_ava.wav,#A24634,4,1.1159098,1,5,t
6,17,stimuli/T05_athetaa.wav,#8B003D,3,0.8341285,1,6,t
6,4,stimuli/T02_aza.wav,#A24634,3,0.9323704,1,7,t
6,12,stimuli/T02_ava.wav,#551700,3,0.6863364,1,8,t
21,6,stimuli/T10_ada.wav,#BA2D00,3,0.4491145,1,0,t
21,1,stimuli/T01_ava.wav,#007C44,4,0.7823524,1,1,t
21,3,stimuli/T01_asa.wav,#007C44,3,1.933457,1,2,t
21,11,stimuli/T01_asa.wav,#00887B,3,0.9662846,1,3,t
21,16,stimuli/T10_aetha.wav,#654800,3,0.9999603,1,4,t
21,12,stimuli/T10_ada.wav,#654800,3,0.8683205,1,5,t
21,1,stimuli/T01_ava.wav,#007C44,3,1.0834051,0,6,t
21,10,stimuli/T10_athetaa.wav,#654800,3,1.6017097,1,7,t
21,5,stimuli/T01_ada.wav,#007C44,4,0.9835654,0,8,t
18,6,stimuli/T03_ama.wav,#A32661,3,1.1509393,1,0,t
18,5,stimuli/T05_asa.wav,#006AA7,3,1.0004178,1,1,t
18,14,stimuli/T03_asa.wav,#A32661,3,1.099004,1,2,t
18,10,stimuli/T03_athetaa.wav,#C48261,3,1.0174453,1,3,t
18,13,stimuli/T05_asha.wav,#0079D1,3,1.1162128,1,4,t
18,1,stimuli/T05_asha.wav,#006AA7,4,0.815602,1,5,t
18,1,stimuli/T05_asha.wav,#006AA7,4,0.7680873,1,6,t
18,17,stimuli/T05_asa.wav,#0079D1,3,0.6338095,1,7,t
18,2,stimuli/T03_athetaa.wav,#CC6B72,3,0.6835848,1,8,t
20,15,stimuli/T09_asa.wav,#005100,3,0.534492,1,0,t
20,0,stimuli/T12_aka.wav,#C96C38,4,1.5508254,1,1,t
20,7,stimuli/T09_athetaa.wav,#005100,4,1.0660708,0,2,t
20,10,stimuli/T12_ana.wav,#AF7D3B,3,0.7347306,1,3,t
20,3,stimuli/T09_ama.wav,#578932,3,0.8496291,1,4,t
20,5,stimuli/T09_asa.wav,#578932,4,0.8340523,0,5,t
20,12,stimuli/T12_aka.wav,#AF7D3B,3,1.2649794,1,6,t
20,1,stimuli/T09_athetaa.wav,#578932,4,1.3987774,1,7,t
20,15,stimuli/T09_asa.wav,#005100,3,0.8507416,1,8,t
17,4,stimuli/T06_athetaa.wav,#409156,3,0.8987818,1,0,t
17,17,stimuli/T12_ada.wav,#900041,3,0.7342613,1,1,t
17,3,stimuli/T12_asha.wav,#BF3E6C,3,0.9351733,1,2,t
17,1,stimuli/T12_azha.wav,#BF3E6C,3,0.6315815,0,3,t
17,16,stimuli/T06_athetaa.wav,#005308,3,0.9165505,1,4,t
17,0,stimuli/T06_ata.wav,#409156,4,0.9836696,1,5,t
17,7,stimuli/T12_azha.wav,#530047,3,0.7988751,1,6,t
17,13,stimuli/T12_azha.wav,#900041,3,1.1337179,1,7,t
17,8,stimuli/T06_aetha.wav,#7DB107,3,0.8835169,1,8,t
3,15,stimuli/T06_apa.wav,#005534,3,0.7162089,1,0,t
3,15,stimuli/T06_apa.wav,#005534,3,0.6148963,1,1,t
3,4,stimuli/T11_ana.wav,#A3446F,3,0.698956,1,2,t
3,8,stimuli/T11_apa.wav,#644574,3,0.8167688,1,3,t
3,6,stimuli/T11_ama.wav,#644574,3,0.769906,1,4,t
3,0,stimuli/T11_ama.wav,#A3446F,3,0.8025193,0,5,t
3,3,stimuli/T06_aga.wav,#007653,3,1.4188368,1,6,t
3,13,stimuli/T06_afa.wav,#32A994,3,0.7824987,1,7,t
3,0,stimuli/T11_ama.wav,#A3446F,3,0.7998446,0,8,t
7,2,stimuli/T07_aga.wav,#B94C76,3,0.9658464,1,0,t
7,12,stimuli/T07_ana.wav,#EC7A83,3,0.803289,1,1,t
7,0,stimuli/T07_ana.wav,#B94C76,3,0.6471548,0,2,t
7,9,stimuli/T03_ava.wav,#00CBF4,3,0.7000518,1,3,t
7,9,stimuli/T03_ava.wav,#00CBF4,3,0.7327293,1,4,t
7,17,stimuli/T03_aka.wav,#4E7DCC,3,0.6832256,1,5,t
7,1,stimuli/T03_apa.wav,#006AA1,3,0.6652635,0,6,t
7,6,stimuli/T07_ana.wav,#A65BBA,3,0.7337651,1,7,t
7,5,stimuli/T03_aka.wav,#006AA1,3,1.5005772,1,8,t
15,1,stimuli/T03_azha.wav,#00813A,4,0.9679495,1,0,t
15,7,stimuli/T03_azha.wav,#C0CE7B,3,0.6820381,1,1,t
15,5,stimuli/T03_ada.wav,#00813A,3,0.8493301,1,2,t
15,10,stimuli/T09_aza.wav,#655825,3,0.6848408,1,3,t
15,1,stimuli/T03_azha.wav,#00813A,4,0.8685962,1,4,t
15,14,stimuli/T09_ata.wav,#CBB072,3,0.8491662,1,5,t
15,8,stimuli/T09_aza.wav,#CBB072,3,0.7507762,1,6,t
15,3,stimuli/T03_aba.wav,#00813A,3,1.3509056,1,7,t
15,12,stimuli/T09_aka.wav,#655825,3,1.4833654,1,8,t
11,12,stimuli/T09_azha.wav,#BB0037,4,0.9833263,0,1,t
11,10,stimuli/T09_asha.wav,#BB0037,4,0.981945,0,2,t
11,5,stimuli/T04_aga.wav,#6E6C00,3,0.7174137,1,3,t
11,2,stimuli/T09_asha.wav,#B03A35,3,1.0334931,1,4,t
11,0,stimuli/T09_azha.wav,#B03A35,3,0.78418,0,5,t
11,0,stimuli/T09_azha.wav,#B03A35,3,0.7167655,0,6,t
11,9,stimuli/T04_athetaa.wav,#2C5300,3,1.6169105,1,7,t
11,8,stimuli/T09_asha.wav,#FF0267,3,0.784337,1,8,t
5,12,stimuli/T06_aka.wav,#2B96A4,3,0.7164964,1,0,t
5,5,stimuli/T03_athetaa.wav,#0089BC,3,1.7999003,1,1,t
5,11,stimuli/T03_ana.wav,#6DB2FF,3,0.8334328,1,2,t
5,0,stimuli/T06_aka.wav,#009ABE,4,1.1663455,1,3,t
5,2,stimuli/T06_aga.wav,#009ABE,3,0.9332909,1,4,t
5,6,stimuli/T06_aka.wav,#006099,3,0.8992645,1,5,t
5,10,stimuli/T06_aga.wav,#2B96A4,3,1.4833755,1,6,t
5,15,stimuli/T03_athetaa.wav,#A68CA5,3,1.350202,1,7,t
5,0,stimuli/T06_aka.wav,#009ABE,3,1.2004732,0,8,t
25,15,stimuli/T09_ada.wav,#7E8D00,3,0.8174694,1,0,t
25,0,stimuli/T01_aza.wav,#C8506B,4,1.0162235,1,1,t
25,11,stimuli/T09_asha.wav,#D5D084,3,0.9165981,1,2,t
25,0,stimuli/T01_aza.wav,#C8506B,4,1.1326489,1,3,t
25,10,stimuli/T01_apa.wav,#944875,3,0.8154967,1,4,t
25,5,stimuli/T09_ada.wav,#778E46,3,1.0327349,1,5,t
25,2,stimuli/T01_apa.wav,#C8506B,3,0.9862636,1,6,t
25,12,stimuli/T01_aza.wav,#944875,3,1.1663019,1,7,t
25,7,stimuli/T09_azha.wav,#7E8D00,3,1.2176043,1,8,t
12,14,stimuli/T07_athetaa.wav,#FFB67D,3,1.2846177,1,0,t
12,15,stimuli/T03_ava.wav,#A5C3FD,3,0.8356394,1,1,t
12,9,stimuli/T03_athetaa.wav,#A5C3FD,3,0.7345037,1,2,t
12,1,stimuli/T03_aga.wav,#965D9D,3,1.2998239,0,3,t
12,13,stimuli/T03_aga.wav,#502D5F,3,0.4995707,1,4,t
12,2,stimuli/T07_azha.wav,#BF822F,3,1.0173467,1,6,t
12,6,stimuli/T07_asa.wav,#FFB67D,3,1.1146544,1,7,t
12,1,stimuli/T03_aga.wav,#965D9D,4,1.1362156,1,8,t
2,2,stimuli/T10_ada.wav,#83941F,4,0.8847474,0,0,t
2,8,stimuli/T10_ada.wav,#385734,3,0.8004203,1,1,t
2,17,stimuli/T06_azha.wav,#C4A150,3,0.9491228,1,2,t
2,11,stimuli/T06_asa.wav,#C4A150,3,0.7934125,1,3,t
2,4,stimuli/T10_afa.wav,#83941F,3,1.2017607,1,4,t
2,0,stimuli/T10_athetaa.wav,#83941F,4,0.9997048,1,5,t
2,1,stimuli/T06_aza.wav,#B67143,4,1.1850265,1,6,t
2,13,stimuli/T06_aza.wav,#C4A150,4,1.0509477,0,7,t
2,6,stimuli/T10_athetaa.wav,#385734,3,1.0351987,1,8,t
23,14,stimuli/T03_asa.wav,#457700,3,1.7669193,1,0,t
23,9,stimuli/T12_aga.wav,#FFD0AE,3,0.782104,1,1,t
23,7,stimuli/T12_aka.wav,#FFD0AE,3,0.3984258,1,2,t
23,0,stimuli/T03_athetaa.wav,#468537,4,1.019282,1,3,t
23,0,stimuli/T03_athetaa.wav,#468537,4,1.7002196,1,4,t
23,12,stimuli/T03_athetaa.wav,#40A730,3,1.5010941,1,5,t
23,16,stimuli/T03_asa.wav,#40A730,3,0.8673517,1,6,t
23,2,stimuli/T03_ama.wav,#468537,3,0.7662603,1,7,t
23,4,stimuli/T03_asa.wav,#468537,3,1.2018766,1,8,t
16,4,stimuli/T01_asa.wav,#AB6A23,3,0.7213555,1,0,t
16,1,stimuli/T09_aetha.wav,#008043,4,0.6627705,1,1,t
16,14,stimuli/T01_asa.wav,#817F71,3,1.1329001,1,2,t
16,0,stimuli/T01_afa.wav,#AB6A23,4,1.2339834,1,3,t
16,3,stimuli/T09_asa.wav,#008043,4,1.4012781,0,4,t
16,13,stimuli/T09_aetha.wav,#003F00,3,0.852836,1,5,t
16,7,stimuli/T09_aetha.wav,#007842,3,1.1180809,1,6,t
16,9,stimuli/T09_asa.wav,#007842,4,1.2357524,0,7,t
16,9,stimuli/T09_asa.wav,#007842,3,0.9990974,1,8,t
19,3,stimuli/T03_apa.wav,#0092DC,3,1.7182696,1,0,t
19,12,stimuli/T08_ana.wav,#627200,3,1.0016735,1,1,t
19,4,stimuli/T08_aza.wav,#81972C,3,1.1003106,1,2,t
19,9,stimuli/T03_apa.wav,#7D98D8,3,0.7487007,1,3,t
19,0,stimuli/T08_ana.wav,#81972C,3,1.6657575,0,4,t
19,0,stimuli/T08_ana.wav,#81972C,3,1.214187,0,5,t
19,9,stimuli/T03_apa.wav,#7D98D8,3,1.7346672,1,6,t
19,6,stimuli/T08_ana.wav,#ACD73B,4,0.9519426,0,8,t
9,13,stimuli/T02_ata.wav,#EA8D73,3,0.3846912,1,0,t
9,1,stimuli/T02_ata.wav,#B55B58,4,0.832588,1,1,t
9,4,stimuli/T03_athetaa.wav,#6E73BA,3,1.2497426,1,2,t
9,3,stimuli/T02_aetha.wav,#B55B58,3,1.1659723,1,3,t
9,6,stimuli/T03_asha.wav,#00769A,3,1.1001244,1,4,t
9,1,stimuli/T02_ata.wav,#B55B58,4,1.3997513,1,5,t
9,11,stimuli/T02_aetha.wav,#EA8D73,3,1.0009551,1,6,t
9,8,stimuli/T03_apa.wav,#00769A,4,1.0837885,0,7,t
9,14,stimuli/T03_athetaa.wav,#00769A,3,1.1324602,1,8,t
24,0,stimuli/T05_ana.wav,#BC4F46,4,1.0177455,1,0,t
24,3,stimuli/T08_ana.wav,#0073C7,3,0.816947,1,1,t
24,5,stimuli/T08_afa.wav,#0073C7,3,0.8666894,1,2,t
24,10,stimuli/T05_aba.wav,#EF5668,3,0.750814,1,3,t
24,17,stimuli/T08_afa.wav,#006097,3,0.8169845,1,4,t
24,0,stimuli/T05_ana.wav,#BC4F46,3,1.3007179,0,5,t
24,10,stimuli/T05_aba.wav,#EF5668,3,0.7353249,1,6,t
24,13,stimuli/T08_asa.wav,#006097,4,1.0840147,0,7,t
24,7,stimuli/T08_asa.wav,#00D6FF,3,0.6524699,1,8,t
14,10,stimuli/T03_aba.wav,#4260CE,3,1.0845274,1,0,t
14,13,stimuli/T05_aza.wav,#5D7900,3,1.6165371,1,1,t
14,9,stimuli/T05_apa.wav,#E4984F,3,0.7181702,1,2,t
14,7,stimuli/T05_aza.wav,#E4984F,3,0.7198109,1,3,t
14,15,stimuli/T05_aetha.wav,#E4984F,3,0.7830576,1,4,t
14,4,stimuli/T03_aza.wav,#5979CA,3,1.0499594,1,5,t
14,1,stimuli/T05_aza.wav,#A38F3B,3,1.4331982,0,6,t
14,3,stimuli/T05_apa.wav,#A38F3B,3,0.5017034,1,7,t
14,1,stimuli/T05_aza.wav,#A38F3B,3,0.7670947,0,8,t
13,1,stimuli/T01_asha.wav,#C05541,4,1.4513495,1,0,t
13,5,stimuli/T01_athetaa.wav,#C05541,4,1.6351123,0,1,t
13,11,stimuli/T01_afa.wav,#AE0F42,4,1.5002306,0,2,t
13,3,stimuli/T01_afa.wav,#C05541,3,0.6681328,1,3,t
13,14,stimuli/T08_afa.wav,#94A1D5,3,1.1143457,1,4,t
13,8,stimuli/T08_ada.wav,#94A1D5,3,1.0708512,1,5,t
13,1,stimuli/T01_asha.wav,#C05541,4,1.4500046,1,6,t
13,12,stimuli/T08_athetaa.wav,#0063B4,3,1.0183922,1,7,t
13,6,stimuli/T08_athetaa.wav,#94A1D5,3,0.6494459,1,8,t
10,1,stimuli/T12_ava.wav,#0067BB,4,0.9513666,1,0,t
10,6,stimuli/T05_aetha.wav,#F2B7FF,3,0.7164509,1,1,t
10,4,stimuli/T05_azha.wav,#7E84D9,4,1.216287,0,2,t
10,9,stimuli/T12_ama.wav,#000054,3,0.7824854,1,3,t
10,12,stimuli/T05_aetha.wav,#99CDFF,4,1.1156156,0,4,t
10,1,stimuli/T12_ava.wav,#0067BB,3,0.8229003,0,5,t
10,16,stimuli/T05_azha.wav,#99CDFF,3,0.7845221,1,6,t
10,9,stimuli/T12_ama.wav,#000054,3,1.086726,1,7,t
10,3,stimuli/T12_ama.wav,#0067BB,3,1.1821271,1,8,t
22,4,stimuli/T03_asa.wav,#957FC7,3,0.9183714,1,0,t
22,6,stimuli/T03_ama.wav,#FFEBFF,3,0.7002979,1,1,t
22,8,stimuli/T03_aza.wav,#FFEBFF,3,0.6859509,1,2,t
22,0,stimuli/T03_ama.wav,#957FC7,4,0.7326076,1,3,t
22,3,stimuli/T08_ama.wav,#00A3CD,4,1.3498663,0,4,t
22,14,stimuli/T03_asa.wav,#FFEBFF,3,0.7504008,1,5,t
22,15,stimuli/T08_ata.wav,#80CDCC,3,1.3009637,1,6,t
22,1,stimuli/T08_asha.wav,#00A3CD,4,1.5356526,1,7,t
22,13,stimuli/T08_asha.wav,#0079A8,3,0.7845126,1,8,t
4,6,stimuli/T12_aba.wav,#B47E74,3,1.5173908,1,0,t
4,9,stimuli/T10_ana.wav,#5FC7FF,3,0.3184773,1,1,t
4,2,stimuli/T12_azha.wav,#B07E32,3,1.4504764,1,2,t
4,5,stimuli/T10_athetaa.wav,#0078D2,3,1.6180877,1,3,t
4,8,stimuli/T12_azha.wav,#B47E74,3,1.4324426,1,4,t
4,9,stimuli/T10_ana.wav,#5FC7FF,3,1.617931,1,5,t
4,0,stimuli/T12_aba.wav,#B07E32,3,1.066232,0,6,t
4,12,stimuli/T12_aba.wav,#A58C61,3,1.0178803,1,7,t
4,0,stimuli/T12_aba.wav,#B07E32,3,0.7673296,0,8,t
8,8,stimuli/T06_ana.wav,#68E8B0,3,1.248858,1,0,t
8,12,stimuli/T06_ava.wav,#00948E,3,0.9004889,1,1,t
8,0,stimuli/T06_ava.wav,#1D8B60,4,1.3873003,1,2,t
8,6,stimuli/T06_ava.wav,#68E8B0,3,0.7514802,1,3,t
8,2,stimuli/T06_ana.wav,#1D8B60,3,0.7354995,1,4,t
8,4,stimuli/T06_ada.wav,#1D8B60,3,0.9159356,1,5,t
8,16,stimuli/T06_ada.wav,#00948E,3,0.6056762,1,6,t
8,1,stimuli/T07_aka.wav,#B93541,4,1.0163933,1,7,t
8,17,stimuli/T07_afa.wav,#C52762,3,0.8003291,1,8,t
1,7,stimuli/T09_asha.wav,#CABA00,3,0.8176954,1,1,t
1,16,stimuli/T11_aka.wav,#50CBFF,3,0.8990977,1,2,t
1,8,stimuli/T11_aga.wav,#00C3FF,3,0.8834334,1,3,t
1,12,stimuli/T11_ata.wav,#50CBFF,3,0.7155729,1,4,t
1,4,stimuli/T11_aka.wav,#008FBF,3,1.1175731,1,5,t
1,2,stimuli/T11_aga.wav,#008FBF,3,0.7813154,1,6,t
1,1,stimuli/T09_asha.wav,#87942A,4,0.8340463,1,7,t
1,14,stimuli/T11_aka.wav,#00C3FF,3,0.9158672,1,8,t
6,5,stimuli/T10_aza.wav,#9C4161,3,0.9502676,1,1,t
6,9,stimuli/T10_asha.wav,#A7001C,3,1.4323217,1,2,t
6,3,stimuli/T10_asha.wav,#9C4161,3,1.1329074,1,3,t
6,14,stimuli/T09_azha.wav,#DB7E43,3,1.3982153,1,4,t
6,12,stimuli/T09_aga.wav,#9F6365,3,1.04972,1,6,t
6,8,stimuli/T09_asa.wav,#DB7E43,3,0.8668197,1,7,t
6,7,stimuli/T10_azha.wav,#A7001C,3,1.4673928,1,8,t
21,7,stimuli/T05_azha.wav,#8F0015,4,0.733194,0,0,t
21,16,stimuli/T08_ava.wav,#02A49F,3,0.6821478,1,1,t
21,5,stimuli/T05_aga.wav,#A93741,3,0.7679873,1,2,t
21,2,stimuli/T08_apa.wav,#00794E,4,1.6997602,0,3,t
21,1,stimuli/T05_azha.wav,#A93741,4,0.7835066,1,4,t
21,15,stimuli/T05_aga.wav,#8F0015,3,0.805391,1,5,t
21,16,stimuli/T08_ava.wav,#02A49F,3,1.2659641,1,6,t
21,0,stimuli/T08_aza.wav,#00794E,4,1.1320007,1,7,t
21,13,stimuli/T05_azha.wav,#F2846C,3,0.7194762,1,8,t
18,11,stimuli/T08_asa.wav,#B76E62,4,1.0847504,0,0,t
18,7,stimuli/T08_aza.wav,#B239B9,3,0.8850882,1,1,t
18,1,stimuli/T08_aza.wav,#BA587E,3,0.9831126,0,2,t
18,1,stimuli/T08_aza.wav,#BA587E,3,0.8681511,0,3,t
18,17,stimuli/T08_ava.wav,#B76E62,3,1.0674952,1,4,t
18,16,stimuli/T05_ata.wav,#53B656,3,0.9861549,1,5,t
18,13,stimuli/T08_aza.wav,#B76E62,3,0.8814313,1,6,t
18,2,stimuli/T05_aga.wav,#2A7326,4,1.1635239,0,7,t
18,4,stimuli/T05_ata.wav,#2A7326,3,1.134693,1,8,t
20,0,stimuli/T01_ata.wav,#A94749,4,0.801517,1,0,t
20,6,stimuli/T01_ata.wav,#BA7906,3,1.0184114,1,1,t
20,2,stimuli/T01_aetha.wav,#A94749,3,1.6188746,1,2,t
20,14,stimuli/T01_aka.wav,#BA7906,3,1.100374,1,3,t
20,5,stimuli/T08_aka.wav,#008542,3,1.367322,1,4,t
20,8,stimuli/T01_aetha.wav,#BA7906,3,1.5037116,1,5,t
20,0,stimuli/T01_ata.wav,#A94749,4,1.5028965,1,6,t
20,16,stimuli/T01_aka.wav,#B83C71,3,0.6980748,1,7,t
20,12,stimuli/T01_ata.wav,#B83C71,3,0.9848189,1,8,t
